,Unnamed: 0,DriverID,Hour,Minute,Second,GyroX,GyroY,GyroZ,AccX,AccY,AccZ,TaskID_new
0,64,Driver-1,15,42,39,0.1679389312977099,4.00763358778626,-1.557251908396946,0.314453125,-0.150390625,-0.930908203125,5
1,717,Driver-2,15,13,13,5.83206106870229,3.679389312977099,-30.75572519083969,-0.02001953125,-0.446533203125,-1.001708984375,63
2,885,Driver-3,14,56,13,-0.3969465648854962,4.0,0.7633587786259542,0.199951171875,-0.066162109375,-0.979248046875,77
3,730,Driver-2,15,10,59,9.229007633587786,-6.931297709923665,-45.94656488549618,-0.12841796875,-0.79345703125,-1.021240234375,64
4,524,Driver-2,14,24,51,-1.404580152671756,5.221374045801527,-1.045801526717557,0.447021484375,-0.144775390625,-0.96728515625,45
5,201,Driver-2,15,50,33,-1.946564885496183,4.503816793893129,0.3435114503816794,0.1455078125,-0.1279296875,-0.99072265625,15
6,11,Driver-1,15,39,47,-5.045801526717558,-3.297709923664122,37.9236641221374,0.176025390625,0.49560546875,-1.023681640625,1
7,56,Driver-1,15,42,32,-1.122137404580153,3.625954198473282,0.2977099236641221,0.199951171875,-0.106201171875,-0.990234375,5
8,1029,Driver-3,12,20,30,-1.137404580152672,4.099236641221374,1.030534351145038,0.102294921875,0.028076171875,-1.005859375,97
9,1003,Driver-2,12,19,41,-1.633587786259542,4.541984732824427,1.389312977099237,-0.07958984375,0.1064453125,-1.0673828125,94
10,381,Driver-1,14,27,27,-2.488549618320611,6.648854961832061,1.045801526717557,0.556396484375,-0.1875,-0.981689453125,29
11,1002,Driver-2,12,19,40,-3.877862595419847,5.259541984732825,1.259541984732824,0.0234375,0.031982421875,-1.0546875,94
12,146,Driver-2,15,47,27,1.091603053435114,6.320610687022901,1.206106870229008,0.443115234375,-0.17529296875,-1.13232421875,11
13,738,Driver-2,15,10,1,-6.900763358778626,5.030534351145038,0.2137404580152672,0.210205078125,-0.09423828125,-1.02587890625,65
14,578,Driver-3,14,21,58,2.442748091603054,3.183206106870229,-0.015267175572519,0.556884765625,-0.213134765625,-0.8720703125,51
15,807,Driver-3,15,2,12,-0.8320610687022901,2.83206106870229,5.290076335877862,0.393798828125,-0.07421875,-0.986083984375,71
16,901,Driver-1,12,14,6,-1.076335877862595,4.862595419847328,1.893129770992366,0.04443359375,0.032958984375,-0.978271484375,79
17,853,Driver-3,15,0,10,2.160305343511451,-2.267175572519084,-33.04580152671755,0.08154296875,-0.509033203125,-0.9814453125,74
18,863,Driver-3,14,58,39,2.351145038167939,0.4198473282442748,-28.0381679389313,0.0751953125,-0.424560546875,-0.885498046875,75
19,242,Driver-2,15,36,4,-3.488549618320611,5.374045801526718,2.267175572519084,0.20751953125,0.031982421875,-0.94287109375,18
20,813,Driver-3,15,2,17,-3.656488549618321,7.702290076335878,1.587786259541985,0.03564453125,-0.11376953125,-0.80029296875,71
21,170,Driver-2,15,48,47,-2.015267175572519,7.213740458015267,1.50381679389313,0.462890625,-0.182861328125,-1.054931640625,13
22,407,Driver-1,14,29,12,0.9465648854961832,6.389312977099237,0.8778625954198473,0.445556640625,-0.23095703125,-0.984375,32
23,292,Driver-3,15,33,44,0.4122137404580153,2.473282442748092,-0.5114503816793893,0.2880859375,-0.203125,-1.069091796875,21
24,1080,Driver-3,12,25,17,-1.030534351145038,1.442748091603054,0.2290076335877863,0.0400390625,0.13427734375,-1.087646484375,105
25,739,Driver-2,15,10,2,-3.129770992366412,3.717557251908397,0.1908396946564886,0.355712890625,-0.221923828125,-1.0751953125,65
26,710,Driver-2,15,13,6,-0.8091603053435115,4.175572519083969,0.732824427480916,0.165771484375,-0.074462890625,-0.996337890625,63
27,906,Driver-1,12,14,22,-0.6030534351145038,5.748091603053435,0.7557251908396947,0.04052734375,0.00537109375,-1.020751953125,80
28,540,Driver-3,14,24,38,-1.061068702290076,4.473282442748092,0.4580152671755725,0.19580078125,-0.021728515625,-0.98486328125,47
29,1078,Driver-3,12,24,17,-0.5954198473282443,3.16793893129771,0.5801526717557252,0.072998046875,0.0185546875,-0.916748046875,104
30,425,Driver-1,14,30,23,1.748091603053435,4.526717557251908,0.3053435114503817,0.507080078125,-0.2685546875,-0.99267578125,34
31,773,Driver-2,15,4,47,-3.709923664122138,9.435114503816791,4.221374045801527,0.311767578125,-0.03759765625,-0.89111328125,68
32,1070,Driver-3,12,24,2,-1.122137404580153,3.786259541984733,0.1908396946564886,0.272216796875,-0.096923828125,-0.975341796875,103
33,333,Driver-3,15,31,11,-0.8015267175572519,4.145038167938932,0.6030534351145038,0.179443359375,-0.04931640625,-0.9853515625,24
34,522,Driver-2,14,24,50,-0.8854961832061069,3.977099236641221,0.9770992366412212,0.17919921875,-0.063720703125,-0.961181640625,45
35,1050,Driver-3,12,21,41,-0.3816793893129771,4.679389312977099,0.9770992366412212,0.127685546875,0.024658203125,-0.998291015625,100
36,158,Driver-2,15,48,13,0.8549618320610687,5.900763358778626,2.587786259541985,0.305419921875,-0.119384765625,-0.964111328125,12
37,779,Driver-2,15,4,52,4.015267175572519,-5.541984732824427,-39.3206106870229,-0.097412109375,-0.578857421875,-0.877197265625,68
38,502,Driver-2,14,34,14,0.7175572519083969,3.091603053435115,-6.160305343511451,0.011474609375,-0.1015625,-1.08935546875,42
39,960,Driver-2,12,17,22,-2.786259541984733,7.519083969465649,1.763358778625954,0.058837890625,0.088623046875,-0.9990234375,88
40,497,Driver-2,14,34,10,1.015267175572519,2.671755725190839,1.488549618320611,0.4951171875,-0.162109375,-1.00830078125,42
41,208,Driver-2,15,50,41,-6.526717557251908,8.374045801526718,28.87022900763359,0.283203125,0.266845703125,-1.230712890625,15
42,784,Driver-3,15,3,56,-3.534351145038168,3.923664122137405,2.465648854961832,0.422607421875,-0.087890625,-1.06982421875,69
43,791,Driver-3,15,4,2,1.427480916030534,-1.053435114503817,-41.2442748091603,-0.0498046875,-0.547119140625,-0.987060546875,69
44,694,Driver-1,15,21,18,2.33587786259542,10.42748091603053,-0.7251908396946565,0.037353515625,-0.204345703125,-0.92431640625,61
45,1052,Driver-3,12,22,30,0.1984732824427481,4.045801526717558,2.106870229007634,-0.0205078125,0.010009765625,-1.119140625,101
46,475,Driver-2,14,32,55,5.137404580152672,2.862595419847328,4.625954198473282,-0.017333984375,0.16357421875,-0.861572265625,39
47,829,Driver-3,15,1,29,-0.8854961832061069,6.702290076335878,-14.15267175572519,0.159912109375,-0.2578125,-0.9921875,72
48,42,Driver-1,15,41,51,-0.9770992366412212,4.427480916030534,0.7786259541984732,0.190673828125,-0.095947265625,-0.98095703125,4
49,576,Driver-3,14,21,57,-1.305343511450382,6.610687022900763,1.061068702290076,0.361328125,-0.112548828125,-0.90380859375,51
50,411,Driver-1,14,29,14,-4.648854961832061,7.435114503816794,3.702290076335878,0.55517578125,-0.3251953125,-1.104248046875,32
51,1090,Driver-3,12,25,40,-1.442748091603054,3.473282442748092,0.2824427480916031,0.503173828125,-0.256591796875,-1.057861328125,106
52,211,Driver-2,15,51,12,-0.6412213740458015,0.0534351145038167,2.145038167938931,0.441162109375,-0.199951171875,-0.857177734375,16
53,658,Driver-1,15,18,14,-1.152671755725191,4.351145038167939,-40.6030534351145,-0.079833984375,-0.638427734375,-0.913818359375,58
54,814,Driver-3,15,2,17,4.32824427480916,3.175572519083969,-19.51908396946565,0.117919921875,-0.373046875,-0.707763671875,71
55,205,Driver-2,15,50,37,-4.33587786259542,-2.0,31.56488549618321,0.279296875,0.411865234375,-1.202392578125,15
56,769,Driver-2,15,7,18,-5.465648854961832,-1.175572519083969,2.175572519083969,0.215576171875,-0.0771484375,-1.30615234375,67
57,577,Driver-3,14,21,57,-1.633587786259542,3.030534351145038,0.1908396946564886,0.47998046875,-0.207275390625,-0.82666015625,51
58,665,Driver-1,15,19,44,-3.083969465648855,1.198473282442748,4.160305343511451,0.25244140625,-0.124755859375,-1.080078125,59
59,968,Driver-2,12,17,36,-0.648854961832061,3.969465648854962,0.9694656488549618,-0.03369140625,0.101806640625,-0.974853515625,89
60,388,Driver-1,14,28,4,2.50381679389313,4.496183206106871,1.473282442748092,0.393798828125,-0.135009765625,-0.942138671875,30
61,390,Driver-1,14,28,5,-3.190839694656489,3.465648854961832,-1.358778625954199,0.489501953125,-0.2744140625,-1.021484375,30
62,880,Driver-3,14,56,10,-0.8015267175572519,4.083969465648855,0.8091603053435115,0.1865234375,-0.073974609375,-0.98583984375,77
63,554,Driver-3,14,23,34,0.8473282442748091,-1.694656488549618,-1.229007633587786,-0.032470703125,-0.011962890625,-0.74462890625,48
64,966,Driver-2,12,17,24,-1.725190839694656,5.809160305343512,1.137404580152672,0.66015625,-0.2236328125,-0.994140625,88
65,214,Driver-2,15,51,15,2.129770992366412,3.984732824427481,-0.5572519083969466,0.27099609375,-0.0078125,-0.856201171875,16
66,749,Driver-2,15,9,15,0.5725190839694656,-1.465648854961832,2.206106870229008,0.1103515625,-0.056396484375,-1.0126953125,66
67,418,Driver-1,14,29,52,2.740458015267175,-0.183206106870229,-2.190839694656489,0.38916015625,-0.033203125,-1.23828125,33
68,759,Driver-2,15,7,10,-3.595419847328244,4.251908396946565,3.816793893129771,0.374267578125,-0.064208984375,-0.90478515625,67
69,673,Driver-1,15,19,53,-0.366412213740458,4.396946564885496,-8.938931297709924,-0.08544921875,-0.114990234375,-1.00439453125,59
70,1043,Driver-3,12,21,21,-1.015267175572519,5.83206106870229,0.4885496183206107,0.415771484375,-0.1513671875,-0.998779296875,99
71,997,Driver-2,12,19,30,0.5725190839694656,7.488549618320611,0.7404580152671756,0.05126953125,-0.011962890625,-0.818603515625,93
72,365,Driver-1,14,26,30,-0.2366412213740458,0.732824427480916,1.450381679389313,0.34716796875,-0.072509765625,-1.05224609375,27
73,1106,Driver-3,12,26,16,-0.4427480916030535,2.030534351145038,0.9923664122137404,0.08447265625,0.06396484375,-1.013427734375,108
74,855,Driver-3,14,58,34,-0.6946564885496184,4.549618320610687,0.183206106870229,0.341552734375,-0.131591796875,-1.0185546875,75
75,751,Driver-2,15,9,17,-3.946564885496183,7.694656488549619,0.3053435114503817,0.224853515625,0.027587890625,-0.94189453125,66
76,48,Driver-1,15,41,56,-2.816793893129771,-5.67175572519084,0.6183206106870229,0.06396484375,-0.0751953125,-1.008056640625,4
77,448,Driver-2,14,31,20,1.893129770992366,5.824427480916031,7.33587786259542,0.0458984375,-0.071044921875,-1.2939453125,36
78,971,Driver-2,12,17,37,0.2061068702290076,2.343511450381679,1.877862595419847,0.60693359375,-0.1474609375,-1.1728515625,89
79,97,Driver-1,15,44,13,-1.129770992366412,2.992366412213741,3.648854961832061,0.160400390625,0.008544921875,-0.711669921875,7
80,245,Driver-2,15,36,5,-4.633587786259542,5.824427480916031,0.5954198473282443,0.2099609375,-0.092041015625,-1.1904296875,18
81,761,Driver-2,15,7,11,-4.045801526717558,3.969465648854962,3.190839694656489,0.27978515625,-0.009033203125,-0.989013671875,67
82,506,Driver-2,14,34,39,-2.404580152671756,7.183206106870229,1.33587786259542,0.460693359375,-0.189453125,-1.077392578125,43
83,987,Driver-2,12,18,32,-1.343511450381679,2.595419847328244,0.6564885496183206,0.643310546875,-0.25244140625,-0.91162109375,91
84,303,Driver-3,15,32,59,0.7022900763358778,3.702290076335878,-1.961832061068702,0.330322265625,-0.107666015625,-0.95263671875,22
85,986,Driver-2,12,18,32,0.2137404580152672,4.625954198473282,0.5954198473282443,0.577392578125,-0.270751953125,-0.939453125,91
86,327,Driver-3,15,31,9,-0.9541984732824428,3.824427480916031,0.7404580152671756,0.177001953125,-0.0556640625,-0.985107421875,24
87,101,Driver-1,15,44,41,-2.068702290076336,5.648854961832061,2.374045801526718,0.40576171875,-0.14306640625,-0.85498046875,8
88,627,Driver-1,15,16,10,-0.7862595419847328,5.190839694656488,1.16793893129771,0.253173828125,-0.078369140625,-0.968994140625,56
89,79,Driver-1,15,43,25,-7.473282442748092,8.534351145038167,9.732824427480915,0.193115234375,0.084716796875,-0.912841796875,6
90,846,Driver-3,15,0,5,-0.5877862595419847,4.480916030534351,1.564885496183206,0.374267578125,-0.1787109375,-0.9150390625,74
91,13,Driver-1,15,39,49,-0.7709923664122137,8.954198473282442,13.42748091603053,0.372802734375,0.000244140625,-0.943359375,1
92,369,Driver-1,14,27,0,-0.7480916030534351,4.374045801526718,0.8091603053435115,0.15576171875,-0.082275390625,-0.987548828125,28
93,353,Driver-1,14,25,18,0.3358778625954199,4.564885496183206,-0.2519083969465649,0.480224609375,-0.226806640625,-0.936767578125,26
94,543,Driver-3,14,24,39,-0.7709923664122137,4.312977099236641,0.7862595419847328,0.182861328125,-0.048828125,-1.014892578125,47
95,795,Driver-3,15,3,10,1.015267175572519,4.282442748091603,4.717557251908397,0.388427734375,-0.105712890625,-0.917724609375,70
96,458,Driver-2,14,32,7,-0.2977099236641221,4.519083969465649,1.16030534351145,0.156005859375,-0.1015625,-1.008056640625,38
97,33,Driver-1,15,41,8,1.908396946564886,1.954198473282443,1.274809160305344,0.1650390625,-0.21484375,-0.952392578125,3
98,359,Driver-1,14,26,27,-1.106870229007634,3.656488549618321,0.7786259541984732,0.158935546875,-0.111572265625,-0.971435546875,27
99,307,Driver-3,15,33,0,-5.358778625954199,3.977099236641221,5.763358778625954,0.12451171875,0.07958984375,-0.949951171875,22
100,3,Driver-1,15,39,42,0.0534351145038167,9.244274809160306,2.893129770992366,0.3701171875,-0.06201171875,-0.901123046875,1
101,623,Driver-1,15,15,25,3.854961832061069,0.2442748091603053,-30.20610687022901,0.15283203125,-0.471435546875,-0.83935546875,55
102,199,Driver-2,15,50,31,0.6641221374045801,1.893129770992366,0.3587786259541985,0.30029296875,-0.094970703125,-0.8125,15
103,656,Driver-1,15,18,11,-7.541984732824427,4.793893129770993,1.450381679389313,0.237548828125,-0.08740234375,-1.06494140625,58
104,1009,Driver-3,12,19,56,-0.5190839694656488,5.465648854961832,-1.145038167938931,0.076416015625,0.0673828125,-0.913330078125,95
105,1059,Driver-3,12,22,47,-0.8015267175572519,4.343511450381679,1.099236641221374,0.099609375,0.16845703125,-1.04443359375,102
106,51,Driver-1,15,41,58,-1.137404580152672,5.183206106870229,-1.022900763358779,0.2841796875,-0.178466796875,-0.95556640625,4
107,342,Driver-3,15,28,4,1.870229007633588,6.748091603053435,1.541984732824427,0.43994140625,-0.0751953125,-0.976318359375,25
108,865,Driver-3,14,58,40,3.442748091603054,3.465648854961832,-22.63358778625954,0.25,-0.22900390625,-0.994140625,75
109,755,Driver-2,15,9,20,1.221374045801527,-3.091603053435115,-16.66412213740458,-0.0263671875,-0.119873046875,-0.9580078125,66
110,1048,Driver-3,12,21,40,-1.641221374045801,3.595419847328244,0.5038167938931297,0.42333984375,-0.1279296875,-0.94873046875,100
111,1017,Driver-3,12,20,16,-0.5267175572519084,6.473282442748092,0.9465648854961832,0.07421875,0.108154296875,-1.03759765625,96
112,584,Driver-3,14,21,24,-3.229007633587786,-0.4656488549618321,3.885496183206107,0.385498046875,-0.069091796875,-0.675048828125,52
113,1023,Driver-3,12,20,26,-0.0610687022900763,2.610687022900763,0.6717557251908397,0.0107421875,0.11181640625,-1.01220703125,97
114,1073,Driver-3,12,24,14,-0.3435114503816794,5.152671755725191,-0.0458015267175572,0.055419921875,0.12158203125,-1.048583984375,104
115,61,Driver-1,15,42,36,3.442748091603054,2.519083969465649,1.152671755725191,0.43701171875,-0.128173828125,-0.92333984375,5
116,116,Driver-1,15,45,22,-2.694656488549618,4.099236641221374,-0.9694656488549618,0.3251953125,-0.177490234375,-1.02734375,9
117,892,Driver-1,12,13,19,1.954198473282443,6.045801526717558,0.7786259541984732,0.012451171875,0.021484375,-0.92431640625,78
118,1036,Driver-3,12,20,45,-0.816793893129771,4.618320610687022,0.9770992366412212,0.121826171875,0.03759765625,-1.03955078125,98
119,515,Driver-2,14,35,2,0.4732824427480916,2.816793893129771,-2.702290076335878,0.420654296875,-0.131591796875,-0.810302734375,44
120,130,Driver-2,15,46,40,1.67175572519084,1.603053435114504,1.045801526717557,0.299560546875,-0.2060546875,-1.076171875,10
121,1032,Driver-3,12,20,43,-4.038167938931298,5.572519083969466,0.900763358778626,0.592041015625,-0.41064453125,-0.947998046875,98
122,149,Driver-2,15,47,30,-13.0381679389313,-0.0687022900763358,24.87786259541985,0.076904296875,0.4306640625,-0.897216796875,11
123,748,Driver-2,15,9,14,-7.366412213740458,6.259541984732825,2.381679389312977,0.278564453125,-0.168701171875,-1.038818359375,66
124,767,Driver-2,15,7,16,-1.931297709923664,1.595419847328244,-42.45801526717558,-0.0908203125,-0.4208984375,-1.055908203125,67
125,904,Driver-1,12,14,22,0.5038167938931297,4.877862595419847,0.6946564885496184,0.030517578125,0.042236328125,-0.9658203125,80
126,298,Driver-3,15,32,57,4.694656488549619,4.244274809160306,4.381679389312978,0.46826171875,-0.186767578125,-0.8349609375,22
127,360,Driver-1,14,26,28,-0.9923664122137404,3.305343511450382,0.6946564885496184,0.17724609375,-0.100341796875,-1.002197265625,27
128,735,Driver-2,15,9,58,-2.358778625954198,0.8854961832061069,3.564885496183206,0.27099609375,-0.078125,-0.925048828125,65
129,677,Driver-1,15,20,24,-3.648854961832061,7.152671755725191,4.389312977099237,0.36669921875,-0.13671875,-1.052001953125,60
130,954,Driver-2,12,17,5,-1.450381679389313,4.564885496183206,0.3893129770992366,0.052978515625,0.08349609375,-1.115478515625,87
131,545,Driver-3,14,24,40,-0.816793893129771,4.206106870229007,1.0,0.190673828125,-0.072021484375,-0.9736328125,47
132,1033,Driver-3,12,20,44,-1.679389312977099,4.175572519083969,0.8396946564885496,0.5,-0.219970703125,-0.94873046875,98
133,37,Driver-1,15,41,11,-0.3129770992366412,8.664122137404581,38.95419847328245,0.187744140625,0.486572265625,-0.963134765625,3
134,1088,Driver-3,12,25,39,-0.0839694656488549,3.740458015267175,2.66412213740458,0.565673828125,-0.361572265625,-0.99169921875,106
135,168,Driver-2,15,48,44,-0.8549618320610687,4.122137404580153,0.6412213740458015,0.142822265625,-0.089599609375,-0.99853515625,13
136,630,Driver-1,15,16,13,-4.946564885496183,4.83206106870229,3.030534351145038,0.396728515625,-0.136474609375,-1.03662109375,56
137,254,Driver-3,15,35,22,-1.786259541984733,3.572519083969466,0.2824427480916031,0.328369140625,-0.113525390625,-0.919921875,19
138,406,Driver-1,14,29,11,-0.8015267175572519,4.564885496183206,0.9465648854961832,0.20458984375,-0.065185546875,-1.049560546875,32
139,89,Driver-1,15,44,6,2.099236641221374,4.931297709923665,1.824427480916031,0.386962890625,-0.159423828125,-0.936767578125,7
140,793,Driver-3,15,4,3,3.847328244274809,3.839694656488549,-17.80916030534351,0.22021484375,-0.400146484375,-0.917724609375,69
141,964,Driver-2,12,17,23,-0.5801526717557252,5.381679389312978,1.877862595419847,0.5869140625,-0.255859375,-0.95068359375,88
142,318,Driver-3,15,31,41,1.83969465648855,3.450381679389313,-0.6641221374045801,0.298583984375,-0.234130859375,-0.70751953125,23
143,366,Driver-1,14,26,31,-0.8473282442748091,2.030534351145038,0.6946564885496184,0.490478515625,-0.109619140625,-0.966064453125,27
144,912,Driver-1,12,14,57,-1.770992366412214,4.801526717557252,0.0534351145038167,0.084228515625,0.05859375,-1.007080078125,81
145,828,Driver-3,15,1,28,0.4580152671755725,-0.931297709923664,-29.53435114503817,0.177490234375,-0.33251953125,-0.99169921875,72
146,93,Driver-1,15,44,9,-9.099236641221374,4.274809160305344,9.732824427480915,0.243896484375,0.09765625,-1.114013671875,7
147,404,Driver-1,14,29,10,-0.4656488549618321,4.236641221374046,0.9465648854961832,0.15625,-0.0771484375,-1.005126953125,32
148,316,Driver-3,15,31,41,0.5648854961832062,4.099236641221374,1.49618320610687,0.177978515625,-0.095703125,-1.0,23
149,961,Driver-2,12,17,22,-0.9083969465648856,5.618320610687022,1.137404580152672,0.026611328125,0.14404296875,-0.983154296875,88
150,998,Driver-2,12,19,31,0.6641221374045801,4.160305343511451,0.7786259541984732,0.506591796875,-0.2431640625,-0.92041015625,93
151,983,Driver-2,12,18,31,3.290076335877862,9.48091603053435,1.33587786259542,0.101318359375,-0.027587890625,-1.0546875,91
152,154,Driver-2,15,48,9,-0.2595419847328244,4.870229007633588,1.145038167938931,0.205810546875,-0.094482421875,-0.989501953125,12
153,956,Driver-2,12,17,5,-1.748091603053435,3.687022900763359,0.6946564885496184,0.03173828125,0.060302734375,-1.021484375,87
154,909,Driver-1,12,14,22,-0.9541984732824428,7.114503816793893,0.5114503816793893,0.05419921875,0.07373046875,-1.0712890625,80
155,261,Driver-3,15,35,26,3.511450381679389,8.320610687022901,6.496183206106871,0.175048828125,0.116943359375,-1.050048828125,19
156,753,Driver-2,15,9,18,6.687022900763359,5.740458015267175,-42.09160305343512,-0.092529296875,-0.614013671875,-1.12890625,66
157,604,Driver-1,15,14,7,-1.32824427480916,1.732824427480916,4.099236641221374,0.171875,-0.0732421875,-0.9423828125,54
158,141,Driver-2,15,47,22,-1.221374045801527,3.770992366412214,0.916030534351145,0.194580078125,-0.097412109375,-0.9873046875,11
159,2,Driver-1,15,39,41,0.6793893129770993,3.206106870229008,-0.2290076335877863,0.431396484375,-0.209716796875,-1.004150390625,1
160,233,Driver-2,15,38,14,-9.450381679389311,5.267175572519084,32.80152671755725,0.233154296875,0.3427734375,-0.77880859375,17
161,395,Driver-1,14,28,42,-0.7099236641221374,5.045801526717558,0.6183206106870229,0.179443359375,-0.088623046875,-1.018798828125,31
162,510,Driver-2,14,34,42,-0.6183206106870229,4.984732824427481,-3.236641221374046,0.195556640625,-0.212890625,-1.171875,43
163,663,Driver-1,15,19,42,-0.8931297709923665,4.083969465648855,3.183206106870229,0.35302734375,-0.097900390625,-0.917236328125,59
164,932,Driver-1,12,16,5,0.6259541984732825,7.213740458015267,1.221374045801527,0.07421875,0.08544921875,-0.978515625,84
165,985,Driver-2,12,18,32,-0.0229007633587786,4.229007633587786,1.16030534351145,0.64013671875,-0.307861328125,-0.879150390625,91
166,120,Driver-1,15,45,26,-2.16793893129771,5.33587786259542,21.48091603053435,0.253662109375,0.348876953125,-1.094482421875,9
167,341,Driver-3,15,28,4,-0.6259541984732825,3.343511450381679,0.931297709923664,0.46142578125,-0.15380859375,-0.979736328125,25
168,258,Driver-3,15,35,24,-1.114503816793893,-1.740458015267176,0.7557251908396947,0.3037109375,-0.04345703125,-0.893310546875,19
169,653,Driver-1,15,18,8,-1.053435114503817,4.099236641221374,3.175572519083969,0.316650390625,-0.200439453125,-0.87158203125,58
170,217,Driver-2,15,51,18,-5.625954198473282,7.847328244274809,32.90839694656488,0.218017578125,0.38037109375,-1.0,16
171,266,Driver-3,15,34,42,-2.938931297709924,4.839694656488549,0.6946564885496184,0.359130859375,-0.183837890625,-1.035400390625,20
172,936,Driver-1,12,16,6,-0.4656488549618321,9.091603053435117,1.709923664122137,0.185302734375,0.03955078125,-1.072998046875,84
173,915,Driver-1,12,14,58,-1.419847328244275,5.435114503816794,0.7022900763358778,0.10595703125,0.00439453125,-0.992919921875,81
174,957,Driver-2,12,17,6,1.473282442748092,6.015267175572519,1.015267175572519,0.39697265625,-0.072265625,-0.99267578125,87
175,455,Driver-2,14,31,45,3.618320610687023,7.122137404580153,0.4503816793893129,0.2060546875,-0.02294921875,-0.92822265625,37
176,766,Driver-2,15,7,16,3.931297709923664,-0.2061068702290076,-42.55725190839695,-0.137939453125,-0.7822265625,-0.93896484375,67
177,337,Driver-3,15,28,3,-0.5190839694656488,3.984732824427481,0.7251908396946565,0.24267578125,-0.0908203125,-0.99267578125,25
178,845,Driver-3,15,0,5,1.793893129770992,4.572519083969466,0.015267175572519,0.2939453125,-0.11181640625,-0.90380859375,74
179,297,Driver-3,15,32,56,-2.076335877862595,-1.106870229007634,1.549618320610687,0.22265625,-0.101806640625,-1.044189453125,22
180,781,Driver-2,15,4,54,-1.656488549618321,-5.67175572519084,-14.41984732824428,0.135986328125,-0.190185546875,-0.8740234375,68
181,549,Driver-3,14,23,32,5.061068702290076,-0.4427480916030535,0.9847328244274808,0.329345703125,-0.058837890625,-0.87939453125,48
182,903,Driver-1,12,14,6,-0.9541984732824428,4.030534351145038,0.4885496183206107,0.031494140625,-0.027099609375,-1.031005859375,79
183,387,Driver-1,14,28,3,-0.4045801526717557,4.229007633587786,0.900763358778626,0.156494140625,-0.088134765625,-0.9853515625,30
184,119,Driver-1,15,45,25,-0.4656488549618321,3.610687022900763,0.9618320610687024,0.295166015625,-0.2294921875,-1.011474609375,9
185,671,Driver-1,15,19,51,1.908396946564886,7.610687022900763,-8.755725190839694,0.332275390625,-0.180419921875,-0.890869140625,59
186,293,Driver-3,15,33,44,-1.030534351145038,-1.885496183206107,0.2748091603053435,0.280029296875,-0.263427734375,-1.13037109375,21
187,562,Driver-3,14,18,12,1.236641221374046,1.33587786259542,0.1755725190839695,0.057373046875,-0.102783203125,-1.285888671875,49
188,429,Driver-1,14,30,25,-1.679389312977099,5.946564885496183,5.786259541984733,0.1220703125,-0.03369140625,-1.16650390625,34
189,727,Driver-2,15,10,56,-4.412213740458015,11.99236641221374,5.809160305343512,0.200439453125,0.002197265625,-1.01953125,64
190,879,Driver-3,14,56,10,-1.061068702290076,4.145038167938932,0.7786259541984732,0.18017578125,-0.080322265625,-0.975830078125,77
191,114,Driver-1,15,45,20,-1.152671755725191,2.977099236641221,-1.954198473282443,0.3232421875,-0.13671875,-0.962890625,9
192,1027,Driver-3,12,20,29,-3.648854961832061,4.977099236641221,0.9694656488549618,0.692138671875,-0.341552734375,-0.940673828125,97
193,338,Driver-3,15,28,3,-0.4809160305343512,7.068702290076335,1.66412213740458,0.4306640625,-0.154052734375,-0.961181640625,25
194,742,Driver-2,15,10,5,7.511450381679389,-1.33587786259542,-42.93893129770992,-0.08740234375,-0.501220703125,-1.005126953125,65
195,511,Driver-2,14,34,43,-1.755725190839695,4.916030534351145,-2.305343511450382,0.08154296875,-0.12744140625,-0.9931640625,43
196,733,Driver-2,15,11,2,-2.587786259541985,3.931297709923664,3.595419847328244,0.1845703125,-0.0322265625,-0.96044921875,64
197,848,Driver-3,15,0,6,2.816793893129771,2.66412213740458,1.633587786259542,0.363037109375,-0.19775390625,-0.982177734375,74
198,520,Driver-2,14,35,7,1.106870229007634,2.038167938931298,-8.351145038167939,-0.078857421875,-0.21337890625,-1.121826171875,44
199,178,Driver-2,15,48,56,-2.709923664122138,4.809160305343512,6.236641221374046,0.205078125,-0.201416015625,-1.10498046875,13
200,974,Driver-2,12,18,16,-2.732824427480916,4.977099236641221,1.610687022900763,0.05126953125,0.10107421875,-1.245849609375,90
201,981,Driver-2,12,18,30,0.0381679389312977,4.824427480916031,1.206106870229008,0.03076171875,0.032958984375,-1.05322265625,91
202,311,Driver-3,15,31,39,-1.419847328244275,7.793893129770993,1.122137404580153,0.373779296875,-0.03173828125,-1.029296875,23
203,346,Driver-3,15,28,5,-2.312977099236641,3.312977099236641,-1.465648854961832,0.325927734375,-0.17236328125,-0.870849609375,25
204,894,Driver-1,12,13,19,-2.541984732824428,2.022900763358779,0.8091603053435115,0.104736328125,-0.024658203125,-1.056884765625,78
205,675,Driver-1,15,20,21,-1.366412213740458,5.534351145038168,2.534351145038168,0.366943359375,-0.07958984375,-0.9453125,60
206,1081,Driver-3,12,25,18,1.541984732824427,7.106870229007634,0.6564885496183206,0.6748046875,-0.30859375,-0.94140625,105
207,111,Driver-1,15,44,50,-0.0763358778625954,7.610687022900763,11.29770992366412,0.201416015625,0.0830078125,-1.04443359375,8
208,331,Driver-3,15,31,10,-0.7175572519083969,4.015267175572519,0.732824427480916,0.17578125,-0.05712890625,-0.990234375,24
209,626,Driver-1,15,16,8,-0.183206106870229,4.870229007633588,0.7786259541984732,0.255615234375,-0.1025390625,-0.96728515625,56
210,518,Driver-2,14,35,5,-2.251908396946565,-3.343511450381679,-0.0076335877862595,0.232666015625,-0.255126953125,-1.11083984375,44
211,568,Driver-3,14,20,41,-0.6870229007633588,6.137404580152672,1.015267175572519,0.533935546875,-0.146728515625,-0.919189453125,50
212,282,Driver-3,15,33,39,-1.458015267175573,2.633587786259542,-0.4351145038167939,0.31787109375,-0.15185546875,-0.9599609375,21
213,1056,Driver-3,12,22,33,-1.061068702290076,4.267175572519084,0.8778625954198473,0.55810546875,-0.240966796875,-0.95068359375,101
214,532,Driver-3,14,24,2,-7.541984732824427,2.267175572519084,2.969465648854962,0.491455078125,-0.305908203125,-0.72900390625,46
215,309,Driver-3,15,31,38,3.687022900763359,4.977099236641221,1.679389312977099,0.375,-0.11865234375,-0.8369140625,23
216,783,Driver-3,15,3,55,0.6717557251908397,2.755725190839695,4.66412213740458,0.353759765625,-0.083251953125,-0.97119140625,69
217,257,Driver-3,15,35,24,-0.9541984732824428,9.244274809160306,2.16793893129771,0.4384765625,-0.134033203125,-1.043212890625,19
218,979,Driver-2,12,18,18,-2.282442748091603,3.022900763358779,0.8015267175572519,0.638427734375,-0.2236328125,-1.05029296875,90
219,955,Driver-2,12,17,5,0.8091603053435115,2.145038167938931,0.3511450381679389,-0.01806640625,0.06640625,-1.050537109375,87
220,232,Driver-2,15,38,14,-1.465648854961832,4.137404580152672,10.77099236641221,0.1689453125,0.21728515625,-0.99267578125,17
221,1102,Driver-3,12,26,13,-0.8396946564885496,5.290076335877862,1.190839694656489,0.602294921875,-0.352294921875,-0.947509765625,108
222,699,Driver-2,15,22,24,-5.251908396946565,9.442748091603054,0.0687022900763358,0.450439453125,-0.080322265625,-0.84619140625,62
223,253,Driver-3,15,35,22,0.2519083969465649,0.9083969465648856,-0.0687022900763358,0.34423828125,-0.078369140625,-0.8818359375,19
224,296,Driver-3,15,32,56,1.427480916030534,4.656488549618321,-0.1526717557251908,0.5537109375,-0.22802734375,-0.99169921875,22
225,1026,Driver-3,12,20,28,-4.419847328244275,4.847328244274809,0.9389312977099236,0.747802734375,-0.396728515625,-0.93212890625,97
226,194,Driver-2,15,49,55,-1.633587786259542,3.374045801526718,9.580152671755725,-0.15087890625,0.08837890625,-0.897216796875,14
227,69,Driver-1,15,42,43,3.0,6.137404580152672,15.32824427480916,0.44482421875,-0.1025390625,-1.32861328125,5
228,951,Driver-2,12,16,50,5.160305343511451,12.98473282442748,2.732824427480916,0.6806640625,-0.3486328125,-0.965576171875,86
229,965,Driver-2,12,17,24,-3.656488549618321,7.175572519083969,1.748091603053435,0.6123046875,-0.29345703125,-0.934814453125,88
230,1006,Driver-2,12,19,42,0.6259541984732825,4.160305343511451,-1.916030534351145,0.695068359375,-0.3583984375,-0.9912109375,94
231,592,Driver-3,14,21,27,3.870229007633588,1.229007633587786,1.038167938931298,0.017578125,-0.024658203125,-1.218505859375,52
232,225,Driver-2,15,38,9,-1.587786259541985,4.839694656488549,1.66412213740458,0.368896484375,-0.13671875,-0.950927734375,17
233,1076,Driver-3,12,24,16,-0.5572519083969466,4.16793893129771,1.030534351145038,0.60107421875,-0.298095703125,-0.990966796875,104
234,403,Driver-1,14,28,47,-1.877862595419847,0.2824427480916031,-1.381679389312977,0.194091796875,-0.178466796875,-1.083251953125,31
235,175,Driver-2,15,48,52,-10.66412213740458,4.969465648854962,30.99236641221374,0.24462890625,0.384765625,-0.977783203125,13
236,391,Driver-1,14,28,5,-4.946564885496183,10.65648854961832,-0.2824427480916031,0.381103515625,-0.047119140625,-1.126220703125,30
237,9,Driver-1,15,39,46,-2.633587786259542,3.091603053435115,4.938931297709924,0.099853515625,0.098876953125,-0.89794921875,1
238,949,Driver-2,12,16,50,0.9236641221374046,6.183206106870229,1.465648854961832,0.089599609375,-0.00146484375,-1.023681640625,86
239,499,Driver-2,14,34,11,1.137404580152672,7.450381679389313,3.717557251908397,0.418701171875,-0.072265625,-1.2783203125,42
240,886,Driver-3,14,56,13,-0.7404580152671756,4.412213740458015,0.7862595419847328,0.17529296875,-0.07861328125,-0.9970703125,77
241,312,Driver-3,15,31,39,4.977099236641221,0.2595419847328244,1.083969465648855,0.35498046875,-0.12451171875,-0.839599609375,23
242,191,Driver-2,15,49,52,-8.786259541984732,12.93129770992366,43.48854961832061,0.252197265625,0.607177734375,-0.9658203125,14
243,701,Driver-2,15,22,26,-1.717557251908397,3.458015267175572,0.4580152671755725,0.39501953125,-0.10546875,-1.0693359375,62
244,508,Driver-2,14,34,40,1.541984732824427,3.541984732824428,-0.1526717557251908,0.242431640625,-0.111328125,-1.0166015625,43
245,6,Driver-1,15,39,44,-1.83206106870229,0.015267175572519,0.4503816793893129,0.00146484375,-0.173828125,-1.040283203125,1
246,897,Driver-1,12,14,5,1.030534351145038,5.679389312977099,0.3053435114503817,0.021728515625,0.072021484375,-0.89794921875,79
247,274,Driver-3,15,34,46,2.83206106870229,0.7480916030534351,0.8320610687022901,0.3134765625,-0.097412109375,-1.056640625,20
248,231,Driver-2,15,38,13,-2.648854961832061,8.572519083969466,1.992366412213741,0.30712890625,-0.08740234375,-0.7578125,17
249,249,Driver-2,15,36,8,-14.36641221374046,-10.3206106870229,43.34351145038168,0.057861328125,0.562744140625,-0.86767578125,18
250,952,Driver-2,12,16,50,3.099236641221374,7.450381679389313,0.9389312977099236,0.587646484375,-0.227294921875,-0.912353515625,86
251,991,Driver-2,12,18,54,4.068702290076335,7.083969465648855,0.6641221374045801,0.194091796875,0.022705078125,-0.989013671875,92
252,197,Driver-2,15,50,29,-0.267175572519084,4.412213740458015,1.030534351145038,0.188232421875,-0.098876953125,-0.98828125,15
253,635,Driver-1,15,16,19,1.030534351145038,0.2137404580152672,-36.04580152671755,-0.03662109375,-0.43408203125,-1.0322265625,56
254,405,Driver-1,14,29,10,-0.6717557251908397,4.442748091603053,0.8320610687022901,0.171142578125,-0.06396484375,-1.011474609375,32
255,660,Driver-1,15,18,16,0.2366412213740458,5.083969465648855,0.3053435114503817,0.20849609375,-0.052490234375,-1.074462890625,58
256,1074,Driver-3,12,24,14,1.091603053435114,0.7022900763358778,0.1297709923664122,0.54736328125,-0.234130859375,-1.031494140625,104
257,1077,Driver-3,12,24,17,-0.1374045801526718,4.916030534351145,1.091603053435114,0.079345703125,0.046142578125,-0.98291015625,104
258,539,Driver-3,14,24,37,-0.3893129770992366,5.854961832061068,-0.3969465648854962,0.165771484375,-0.03955078125,-1.009033203125,47
259,851,Driver-3,15,0,8,5.893129770992366,1.610687022900763,-10.40458015267176,0.112548828125,-0.216796875,-0.88916015625,74
260,569,Driver-3,14,20,42,-0.7251908396946565,6.106870229007634,1.770992366412214,0.546630859375,-0.127685546875,-1.131103515625,50
261,810,Driver-3,15,2,14,-0.0381679389312977,-0.7251908396946565,1.641221374045801,0.1796875,-0.181640625,-0.909912109375,71
262,692,Driver-1,15,21,16,10.64885496183206,-7.160305343511451,-44.89312977099237,-0.188720703125,-0.663330078125,-1.0859375,61
263,1064,Driver-3,12,22,51,-2.557251908396946,3.862595419847328,0.4503816793893129,0.066650390625,0.083251953125,-0.93359375,102
264,394,Driver-1,14,28,7,-0.9694656488549618,9.557251908396946,-0.6717557251908397,0.1689453125,-0.1552734375,-1.11474609375,30
265,283,Driver-3,15,33,40,-2.244274809160305,4.366412213740458,1.312977099236641,0.413330078125,-0.137939453125,-0.976318359375,21
266,726,Driver-2,15,10,55,-5.305343511450381,7.366412213740458,2.580152671755725,0.345458984375,-0.047607421875,-1.11865234375,64
267,614,Driver-1,15,15,16,-0.9847328244274808,4.809160305343512,1.022900763358779,0.203125,-0.070068359375,-1.00390625,55
268,574,Driver-3,14,20,43,-2.206106870229008,6.725190839694656,0.8473282442748091,0.60400390625,-0.15966796875,-0.950927734375,50
269,913,Driver-1,12,14,58,0.0534351145038167,6.977099236641221,0.2290076335877863,0.124755859375,0.007568359375,-0.963623046875,81
270,854,Driver-3,14,58,33,0.3206106870229007,5.687022900763359,0.5190839694656488,0.32080078125,-0.116455078125,-0.939453125,75
271,459,Driver-2,14,32,8,-0.7557251908396947,4.587786259541985,1.183206106870229,0.177490234375,-0.06982421875,-1.00634765625,38
272,1087,Driver-3,12,25,38,-0.1603053435114504,7.809160305343512,0.900763358778626,0.0107421875,0.16552734375,-1.042724609375,106
273,63,Driver-1,15,42,38,1.847328244274809,6.854961832061068,0.9083969465648856,0.2080078125,-0.111083984375,-0.94921875,5
274,858,Driver-3,14,58,35,-6.816793893129771,4.923664122137405,0.3282442748091603,0.152587890625,-0.105224609375,-1.056640625,75
275,720,Driver-2,15,13,16,1.893129770992366,5.557251908396947,-0.1450381679389313,0.317626953125,0.02880859375,-1.03662109375,63
276,682,Driver-1,15,20,29,3.122137404580153,7.83206106870229,-32.40458015267176,-0.07958984375,-0.505859375,-0.977783203125,60
277,98,Driver-1,15,44,39,-0.3129770992366412,4.473282442748092,1.045801526717557,0.171875,-0.097412109375,-1.00048828125,8
278,1049,Driver-3,12,21,41,-0.5954198473282443,4.32824427480916,0.6793893129770993,0.28466796875,-0.083251953125,-0.994873046875,100
279,226,Driver-2,15,38,9,-3.0,7.679389312977099,2.473282442748092,0.3408203125,-0.0615234375,-0.939697265625,17
280,364,Driver-1,14,26,30,1.282442748091603,0.4045801526717557,1.198473282442748,0.577392578125,-0.29736328125,-0.86083984375,27
281,424,Driver-1,14,30,22,-3.587786259541985,9.045801526717558,0.0458015267175572,0.407958984375,-0.195556640625,-1.009033203125,34
282,870,Driver-3,14,57,17,-2.839694656488549,4.908396946564886,1.267175572519084,0.3583984375,-0.13623046875,-1.064453125,76
283,575,Driver-3,14,21,56,-0.1145038167938931,4.251908396946565,0.4580152671755725,0.2392578125,-0.102294921875,-0.972900390625,51
284,413,Driver-1,14,29,48,-0.6183206106870229,4.33587786259542,1.267175572519084,0.19140625,-0.08642578125,-1.00634765625,33
285,572,Driver-3,14,20,43,1.312977099236641,0.3816793893129771,0.4732824427480916,0.306640625,-0.021484375,-0.912109375,50
286,896,Driver-1,12,13,19,-2.381679389312977,7.282442748091603,1.534351145038168,0.018310546875,0.078857421875,-0.9462890625,78
287,1051,Driver-3,12,22,30,0.7251908396946565,3.885496183206107,1.50381679389313,-0.005615234375,0.08056640625,-1.03955078125,101
288,1055,Driver-3,12,22,32,3.419847328244275,5.526717557251908,3.847328244274809,0.709228515625,-0.302978515625,-0.95849609375,101
289,335,Driver-3,15,31,11,-0.2595419847328244,4.129770992366412,0.8854961832061069,0.177978515625,-0.057861328125,-0.97412109375,24
290,452,Driver-2,14,31,43,0.5419847328244275,3.549618320610687,0.900763358778626,0.547119140625,-0.208984375,-0.926513671875,37
291,990,Driver-2,12,18,53,5.290076335877862,7.259541984732825,-0.4045801526717557,0.136474609375,0.117431640625,-1.057373046875,92
292,379,Driver-1,14,27,26,0.4961832061068702,8.717557251908397,1.030534351145038,0.5126953125,-0.194580078125,-0.825927734375,29
293,478,Driver-2,14,33,16,-1.374045801526718,4.732824427480916,0.7480916030534351,0.2470703125,-0.09912109375,-0.998046875,40
294,326,Driver-3,15,31,8,-1.022900763358779,3.679389312977099,1.038167938931298,0.17822265625,-0.0361328125,-0.971923828125,24
295,754,Driver-2,15,9,19,6.381679389312978,-2.229007633587786,-41.62595419847328,-0.10791015625,-0.571533203125,-0.947021484375,66
296,654,Driver-1,15,18,9,-1.709923664122137,0.4274809160305343,0.1068702290076336,0.294677734375,-0.313720703125,-1.026123046875,58
297,363,Driver-1,14,26,29,-1.358778625954199,5.564885496183206,0.1984732824427481,0.51220703125,-0.1865234375,-0.977783203125,27
298,476,Driver-2,14,33,14,-0.3435114503816794,4.541984732824427,0.6946564885496184,0.1611328125,-0.107177734375,-1.027587890625,40
299,850,Driver-3,15,0,8,-2.977099236641221,3.648854961832061,1.190839694656489,0.2001953125,-0.083984375,-0.88232421875,74
300,617,Driver-1,15,15,19,-2.267175572519084,5.824427480916031,2.129770992366412,0.291748046875,-0.0576171875,-1.138427734375,55
301,780,Driver-2,15,4,53,3.419847328244275,-2.786259541984733,-38.68702290076336,-0.110595703125,-0.59423828125,-1.040771484375,68
302,485,Driver-2,14,33,42,-0.8549618320610687,4.732824427480916,0.8549618320610687,0.177978515625,-0.091796875,-1.049560546875,41
303,796,Driver-3,15,3,10,-1.175572519083969,4.534351145038168,2.351145038167939,0.16845703125,-0.022216796875,-1.007080078125,70
304,339,Driver-3,15,28,3,-0.9618320610687024,4.381679389312978,0.9618320610687024,0.417236328125,-0.147705078125,-0.92724609375,25
305,384,Driver-1,14,27,29,1.580152671755725,0.648854961832061,-2.465648854961832,0.291748046875,-0.375244140625,-1.12451171875,29
306,942,Driver-1,12,16,21,-0.916030534351145,5.656488549618321,0.732824427480916,0.06982421875,0.03076171875,-1.05908203125,85
307,988,Driver-2,12,18,52,2.549618320610687,4.969465648854962,0.5572519083969466,0.120849609375,-0.0615234375,-0.9384765625,92
308,505,Driver-2,14,34,38,1.541984732824427,2.66412213740458,0.9770992366412212,0.503662109375,-0.18408203125,-0.97216796875,43
309,639,Driver-1,15,17,21,-0.4961832061068702,3.908396946564885,0.8702290076335878,0.171875,-0.06982421875,-0.937744140625,57
310,744,Driver-2,15,10,7,-3.526717557251908,3.259541984732825,3.259541984732825,0.187744140625,0.06640625,-0.99267578125,65
311,1093,Driver-3,12,25,59,-0.6335877862595419,4.206106870229007,2.816793893129771,-0.04541015625,0.1259765625,-1.019775390625,107
312,171,Driver-2,15,48,48,-5.648854961832061,8.419847328244275,4.534351145038168,0.4072265625,0.0009765625,-1.04052734375,13
313,397,Driver-1,14,28,43,1.091603053435114,5.549618320610687,0.4122137404580153,0.54931640625,-0.27587890625,-0.882080078125,31
314,1044,Driver-3,12,21,37,-1.954198473282443,5.16793893129771,0.6793893129770993,0.033935546875,0.06298828125,-1.0439453125,100
315,108,Driver-1,15,44,48,-5.732824427480916,2.954198473282443,38.12977099236641,0.321044921875,0.385498046875,-0.78369140625,8
316,193,Driver-2,15,49,54,-6.129770992366412,3.763358778625954,6.412213740458015,-0.13623046875,0.130126953125,-0.86181640625,14
317,899,Driver-1,12,14,6,-0.1221374045801527,3.572519083969466,0.5648854961832062,0.01904296875,0.023193359375,-1.030517578125,79
318,324,Driver-3,15,31,8,-0.931297709923664,4.229007633587786,1.190839694656489,0.1796875,-0.061279296875,-1.006103515625,24
319,279,Driver-3,15,34,48,-5.725190839694656,0.816793893129771,22.06106870229008,0.31005859375,0.126953125,-1.079833984375,20
320,525,Driver-2,14,24,52,-5.053435114503817,3.534351145038168,-2.145038167938931,0.47509765625,-0.146728515625,-1.0390625,45
321,907,Driver-1,12,14,22,0.2061068702290076,3.748091603053435,0.8091603053435115,0.0517578125,0.122802734375,-0.9638671875,80
322,450,Driver-2,14,31,41,-0.4427480916030535,3.801526717557252,0.7709923664122137,0.183837890625,-0.098876953125,-0.930908203125,37
323,358,Driver-1,14,25,20,0.0534351145038167,5.083969465648855,-2.221374045801527,0.276611328125,-0.257568359375,-1.00830078125,26
324,1038,Driver-3,12,21,18,-1.946564885496183,7.022900763358779,1.122137404580153,0.0,0.056884765625,-0.99267578125,99
325,815,Driver-3,15,2,18,6.259541984732825,-3.793893129770992,-34.25954198473283,0.0048828125,-0.564697265625,-0.853515625,71
326,672,Driver-1,15,19,52,1.793893129770992,2.160305343511451,0.5572519083969466,0.090087890625,-0.06103515625,-0.91552734375,59
327,687,Driver-1,15,21,10,-1.297709923664122,4.015267175572519,0.4198473282442748,0.36279296875,-0.1376953125,-0.911865234375,61
328,8,Driver-1,15,39,45,-0.2595419847328244,2.312977099236641,0.0534351145038167,0.345947265625,-0.113525390625,-0.972412109375,1
329,340,Driver-3,15,28,4,0.1221374045801527,2.458015267175572,1.488549618320611,0.40234375,-0.126708984375,-1.013916015625,25
330,135,Driver-2,15,46,45,-5.977099236641221,-2.679389312977099,40.83969465648855,0.18896484375,0.424560546875,-0.82470703125,10
331,684,Driver-1,15,20,31,-3.404580152671756,7.480916030534351,2.839694656488549,-0.05224609375,-0.073486328125,-0.856201171875,60
332,1007,Driver-2,12,19,43,-0.5114503816793893,2.015267175572519,0.7251908396946565,0.669677734375,-0.347900390625,-1.041259765625,94
333,5,Driver-1,15,39,43,3.66412213740458,1.137404580152672,-0.816793893129771,0.19091796875,-0.080810546875,-0.89111328125,1
334,588,Driver-3,14,21,25,-6.641221374045801,7.022900763358779,1.137404580152672,0.3232421875,-0.055908203125,-0.792724609375,52
335,862,Driver-3,14,58,38,-0.7938931297709924,7.106870229007634,-22.84732824427481,-0.055908203125,-0.2587890625,-0.9462890625,75
336,480,Driver-2,14,33,18,-1.175572519083969,6.160305343511451,0.7251908396946565,0.5224609375,-0.21826171875,-0.950439453125,40
337,921,Driver-1,12,15,31,-0.1068702290076336,3.106870229007634,1.557251908396946,-0.0478515625,0.0166015625,-1.05908203125,82
338,344,Driver-3,15,28,5,-5.656488549618321,5.076335877862595,0.9923664122137404,0.451904296875,-0.165283203125,-1.056396484375,25
339,195,Driver-2,15,49,56,-2.809160305343511,6.564885496183206,7.717557251908397,0.103759765625,0.006103515625,-1.08740234375,14
340,516,Driver-2,14,35,3,0.2442748091603053,2.961832061068702,1.0,0.45166015625,-0.215087890625,-1.154296875,44
341,834,Driver-3,15,0,46,-0.8625954198473282,2.396946564885496,0.1297709923664122,0.284912109375,-0.099853515625,-0.9404296875,73
342,291,Driver-3,15,33,43,-7.541984732824427,7.068702290076335,0.9923664122137404,0.283447265625,-0.16162109375,-0.92724609375,21
343,994,Driver-2,12,18,55,0.0610687022900763,7.297709923664122,1.404580152671756,0.647216796875,-0.30712890625,-0.885498046875,92
344,174,Driver-2,15,48,51,-0.9923664122137404,-1.114503816793893,-1.519083969465649,0.11962890625,-0.1953125,-0.92529296875,13
345,71,Driver-1,15,43,18,-0.900763358778626,3.488549618320611,0.6870229007633588,0.192626953125,-0.095458984375,-0.967529296875,6
346,441,Driver-2,14,31,15,-0.7938931297709924,4.274809160305344,0.8702290076335878,0.161865234375,-0.078857421875,-0.994384765625,36
347,824,Driver-3,15,1,25,0.0305343511450381,3.328244274809161,0.6030534351145038,0.133056640625,-0.09521484375,-0.84912109375,72
348,856,Driver-3,14,58,34,-2.33587786259542,4.496183206106871,-0.4045801526717557,0.2734375,-0.081787109375,-0.96142578125,75
349,977,Driver-2,12,18,17,5.160305343511451,6.770992366412214,1.572519083969466,0.2978515625,-0.112548828125,-1.039306640625,90
350,345,Driver-3,15,28,5,3.274809160305344,7.122137404580153,1.007633587786259,0.39453125,-0.094970703125,-0.984619140625,25
351,801,Driver-3,15,3,14,-7.801526717557252,4.610687022900763,-0.6946564885496184,0.123779296875,0.058837890625,-0.9208984375,70
352,88,Driver-1,15,44,5,-4.961832061068702,5.122137404580153,-1.870229007633588,0.369384765625,-0.094970703125,-0.78076171875,7
353,244,Driver-2,15,36,5,-2.274809160305344,3.671755725190839,-0.6793893129770993,0.20947265625,-0.230712890625,-1.12158203125,18
354,121,Driver-1,15,45,27,-5.770992366412214,-1.816793893129771,41.00763358778626,0.243896484375,0.526611328125,-0.876708984375,9
355,122,Driver-1,15,45,27,-2.274809160305344,7.083969465648855,32.45038167938932,0.371337890625,0.24951171875,-1.136474609375,9
356,926,Driver-1,12,15,49,-1.412213740458015,4.00763358778626,0.5114503816793893,0.04833984375,0.001220703125,-1.021728515625,83
357,496,Driver-2,14,34,9,-5.557251908396947,1.221374045801527,0.549618320610687,0.41064453125,-0.08984375,-0.958251953125,42
358,16,Driver-1,15,40,17,-0.6564885496183206,3.427480916030534,-0.8778625954198473,0.326904296875,-0.169189453125,-0.94775390625,2
359,612,Driver-1,15,14,15,1.908396946564886,2.312977099236641,-1.412213740458015,0.14013671875,0.0078125,-0.90625,54
360,1013,Driver-3,12,19,58,-4.702290076335878,0.2900763358778626,-0.2748091603053435,0.540771484375,-0.30078125,-1.001220703125,95
361,557,Driver-3,14,18,11,2.908396946564885,4.160305343511451,2.717557251908397,0.052978515625,-0.030517578125,-0.98681640625,49
362,878,Driver-3,14,56,9,-0.7251908396946565,4.190839694656488,0.9236641221374046,0.1796875,-0.07275390625,-0.994140625,77
363,131,Driver-2,15,46,41,0.816793893129771,-1.251908396946565,3.839694656488549,0.105224609375,0.01318359375,-0.889404296875,10
364,132,Driver-2,15,46,42,-0.900763358778626,4.053435114503817,1.900763358778626,0.3583984375,-0.169677734375,-0.986083984375,10
365,271,Driver-3,15,34,44,-2.900763358778626,4.297709923664122,-1.946564885496183,0.220947265625,-0.0947265625,-0.763427734375,20
366,996,Driver-2,12,19,30,0.1908396946564886,5.038167938931298,0.9618320610687024,-0.005859375,0.199951171875,-1.04345703125,93
367,308,Driver-3,15,31,38,-2.213740458015267,2.801526717557252,0.2519083969465649,0.388916015625,-0.099365234375,-1.044189453125,23
368,969,Driver-2,12,17,36,-1.305343511450382,3.473282442748092,0.5190839694656488,0.011962890625,0.068115234375,-1.04296875,89
369,267,Driver-3,15,34,42,-0.7175572519083969,4.641221374045801,0.9083969465648856,0.41455078125,-0.14794921875,-0.9912109375,20
370,596,Driver-3,14,21,4,-2.099236641221374,3.022900763358779,3.244274809160305,0.59619140625,-0.167724609375,-0.801513671875,53
371,47,Driver-1,15,41,55,1.030534351145038,2.984732824427481,1.49618320610687,0.370361328125,-0.142578125,-0.90234375,4
372,224,Driver-2,15,38,8,-2.984732824427481,3.473282442748092,-0.9923664122137404,0.371337890625,-0.1591796875,-0.951416015625,17
373,640,Driver-1,15,17,22,0.0839694656488549,6.793893129770993,1.0,0.30859375,-0.113525390625,-0.991943359375,57
374,426,Driver-1,14,30,23,0.5419847328244275,1.946564885496183,2.587786259541985,0.455810546875,-0.09521484375,-0.875244140625,34
375,519,Driver-2,14,35,6,4.198473282442748,13.3969465648855,-2.33587786259542,0.145751953125,0.002685546875,-0.9013671875,44
376,423,Driver-1,14,30,21,-0.5419847328244275,4.396946564885496,1.038167938931298,0.14501953125,-0.091552734375,-1.0009765625,34
377,456,Driver-2,14,31,45,-5.854961832061068,-2.061068702290076,3.068702290076336,0.16064453125,0.004638671875,-1.0703125,37
378,837,Driver-3,15,0,48,-3.473282442748092,-1.641221374045801,-1.076335877862595,0.0966796875,-0.098876953125,-0.91943359375,73
379,10,Driver-1,15,39,46,-4.16793893129771,9.412213740458014,24.27480916030534,0.1162109375,0.244140625,-1.12548828125,1
380,818,Driver-3,15,1,21,-0.549618320610687,3.236641221374046,2.66412213740458,0.33935546875,-0.12646484375,-0.9130859375,72
381,609,Driver-1,15,14,12,7.229007633587786,-1.442748091603054,-33.23664122137404,0.03125,-0.6611328125,-1.219482421875,54
382,473,Driver-2,14,32,54,1.213740458015267,-0.0381679389312977,0.0305343511450381,0.205322265625,-0.112060546875,-0.9287109375,39
383,349,Driver-3,15,28,6,-2.358778625954198,2.251908396946565,0.4122137404580153,0.151123046875,-0.11376953125,-0.85888671875,25
384,180,Driver-2,15,48,58,-1.152671755725191,4.786259541984733,18.6030534351145,0.200439453125,0.106689453125,-1.2021484375,13
385,1025,Driver-3,12,20,27,0.549618320610687,7.251908396946565,0.3282442748091603,0.1181640625,0.037841796875,-1.058837890625,97
386,908,Driver-1,12,14,22,1.816793893129771,5.152671755725191,0.8091603053435115,-0.013427734375,0.078857421875,-0.940185546875,80
387,920,Driver-1,12,15,31,-0.2290076335877863,2.435114503816794,0.9770992366412212,-0.03369140625,0.025146484375,-0.9921875,82
388,409,Driver-1,14,29,13,-0.2595419847328244,2.053435114503817,0.4809160305343512,0.4541015625,-0.16259765625,-0.880126953125,32
389,771,Driver-2,15,4,46,-0.5801526717557252,3.015267175572519,1.755725190839695,0.3818359375,-0.103759765625,-0.9833984375,68
390,1063,Driver-3,12,22,50,-0.6412213740458015,5.106870229007634,1.320610687022901,0.548583984375,-0.24365234375,-0.97265625,102
391,875,Driver-3,14,57,20,4.977099236641221,5.312977099236641,-32.61832061068702,0.366943359375,-0.5791015625,-1.167236328125,76
392,790,Driver-3,15,4,1,2.854961832061069,-3.755725190839695,-25.83969465648855,-0.06689453125,-0.48583984375,-0.95068359375,69
393,70,Driver-1,15,43,17,1.67175572519084,4.274809160305344,0.8473282442748091,0.237060546875,-0.110595703125,-1.011474609375,6
394,39,Driver-1,15,41,13,3.152671755725191,0.1526717557251908,18.87022900763359,0.3359375,0.26904296875,-0.943603515625,3
395,422,Driver-1,14,30,20,-0.3587786259541985,4.709923664122138,0.6946564885496184,0.1796875,-0.08203125,-1.026611328125,34
396,536,Driver-3,14,24,4,3.946564885496183,-0.4351145038167939,1.748091603053435,0.191650390625,-0.219482421875,-0.884033203125,46
397,914,Driver-1,12,14,58,-0.4961832061068702,5.160305343511451,0.7404580152671756,0.136474609375,0.00927734375,-1.0439453125,81
398,299,Driver-3,15,32,57,0.4045801526717557,4.290076335877862,0.7175572519083969,0.3466796875,-0.1650390625,-1.030029296875,22
399,302,Driver-3,15,32,58,5.351145038167939,4.076335877862595,-1.213740458015267,0.47802734375,-0.166015625,-1.015380859375,22
400,716,Driver-2,15,13,12,3.809160305343511,6.977099236641221,-1.984732824427481,0.198486328125,-0.123046875,-0.9091796875,63
401,32,Driver-1,15,41,7,-0.2137404580152672,-3.320610687022901,0.4961832061068702,0.163818359375,-0.05859375,-0.86572265625,3
402,1011,Driver-3,12,19,57,-1.442748091603054,2.145038167938931,0.3206106870229007,0.078369140625,0.0576171875,-0.9892578125,95
403,1066,Driver-3,12,23,59,-1.488549618320611,7.435114503816794,1.045801526717557,0.006591796875,0.05615234375,-0.854248046875,103
404,30,Driver-1,15,41,6,1.916030534351145,2.83206106870229,1.030534351145038,0.405517578125,-0.19580078125,-0.939453125,3
405,73,Driver-1,15,43,20,-2.343511450381679,3.076335877862595,-1.412213740458015,0.382080078125,-0.15576171875,-1.050537109375,6
406,849,Driver-3,15,0,7,-1.053435114503817,4.732824427480916,1.053435114503817,0.143310546875,-0.010009765625,-0.93798828125,74
407,185,Driver-2,15,49,46,0.4503816793893129,0.2366412213740458,-0.648854961832061,0.3642578125,-0.149169921875,-0.85791015625,14
408,871,Driver-3,14,57,18,3.778625954198473,2.519083969465649,1.679389312977099,0.1796875,-0.10546875,-0.931640625,76
409,883,Driver-3,14,56,12,-0.7251908396946565,3.946564885496183,1.038167938931298,0.182861328125,-0.07177734375,-0.990966796875,77
410,43,Driver-1,15,41,52,-0.7251908396946565,4.366412213740458,0.8244274809160306,0.193115234375,-0.087890625,-0.991943359375,4
411,40,Driver-1,15,41,13,-2.396946564885496,14.41221374045801,14.55725190839695,0.388427734375,-0.097900390625,-1.092529296875,3
412,49,Driver-1,15,41,56,-2.816793893129771,2.603053435114504,-1.122137404580153,0.060791015625,-0.086181640625,-0.932861328125,4
413,181,Driver-2,15,48,59,-0.1679389312977099,3.900763358778626,30.59541984732824,0.126953125,0.239013671875,-0.961181640625,13
414,910,Driver-1,12,14,23,-2.870229007633588,4.610687022900763,0.2595419847328244,0.052978515625,0.03515625,-1.0966796875,80
415,975,Driver-2,12,18,17,-0.1068702290076336,6.893129770992366,1.274809160305344,0.087890625,-0.008056640625,-1.071533203125,90
416,587,Driver-3,14,21,25,8.267175572519085,7.587786259541985,0.4732824427480916,0.469482421875,-0.266357421875,-0.964111328125,52
417,290,Driver-3,15,33,43,-2.290076335877862,-1.419847328244275,-0.8015267175572519,0.284423828125,-0.199951171875,-1.007080078125,21
418,978,Driver-2,12,18,18,-3.564885496183206,4.412213740458015,1.488549618320611,0.53857421875,-0.245361328125,-1.034912109375,90
419,621,Driver-1,15,15,23,3.083969465648855,-1.106870229007634,-25.78625954198473,-0.086669921875,-0.5205078125,-1.021240234375,55
420,179,Driver-2,15,48,57,6.312977099236641,4.274809160305344,2.671755725190839,0.061767578125,-0.113525390625,-0.81591796875,13
421,62,Driver-1,15,42,37,-5.786259541984733,4.290076335877862,1.427480916030534,0.273681640625,-0.054443359375,-1.056640625,5
422,80,Driver-1,15,43,25,-11.16030534351145,4.038167938931298,32.3969465648855,0.2744140625,0.514892578125,-1.07275390625,6
423,252,Driver-3,15,35,21,1.587786259541985,2.175572519083969,-1.961832061068702,0.260498046875,-0.125244140625,-0.928466796875,19
424,529,Driver-2,14,24,54,-0.2900763358778626,-2.152671755725191,1.748091603053435,0.4404296875,-0.073486328125,-1.081298828125,45
425,940,Driver-1,12,16,21,1.717557251908397,5.549618320610687,1.022900763358779,0.036865234375,0.071044921875,-1.06396484375,85
426,595,Driver-3,14,21,3,0.3206106870229007,5.610687022900763,0.4503816793893129,0.485595703125,-0.17138671875,-1.018798828125,53
427,115,Driver-1,15,45,21,-0.2900763358778626,2.893129770992366,0.3206106870229007,0.384765625,-0.14599609375,-1.0166015625,9
428,945,Driver-1,12,16,22,-1.190839694656489,3.641221374045802,3.213740458015267,0.671142578125,-0.318359375,-0.974853515625,85
429,924,Driver-1,12,15,32,-1.106870229007634,7.343511450381679,0.8396946564885496,0.03564453125,-0.0322265625,-0.971435546875,82
430,917,Driver-1,12,14,58,2.893129770992366,4.229007633587786,1.030534351145038,0.297607421875,-0.095947265625,-0.95849609375,81
431,732,Driver-2,15,11,1,5.496183206106871,6.183206106870229,-6.374045801526718,0.27294921875,0.045654296875,-0.97705078125,64
432,1083,Driver-3,12,25,20,-2.274809160305344,3.458015267175572,0.900763358778626,0.586669921875,-0.26904296875,-0.97412109375,105
433,544,Driver-3,14,24,40,-0.8396946564885496,4.282442748091603,0.6106870229007634,0.18603515625,-0.061767578125,-0.98486328125,47
434,255,Driver-3,15,35,23,2.068702290076336,0.7480916030534351,0.8396946564885496,0.2587890625,-0.1279296875,-0.803955078125,19
435,376,Driver-1,14,27,4,2.618320610687023,8.229007633587786,-1.312977099236641,0.0791015625,-0.00537109375,-0.870361328125,28
436,421,Driver-1,14,29,54,-1.961832061068702,7.053435114503817,0.7480916030534351,0.12744140625,-0.18017578125,-1.031982421875,33
437,155,Driver-2,15,48,10,-3.633587786259542,4.358778625954199,1.106870229007634,0.225830078125,-0.09619140625,-0.950439453125,12
438,84,Driver-1,15,44,1,-0.8396946564885496,4.152671755725191,1.061068702290076,0.181640625,-0.11474609375,-0.9814453125,7
439,190,Driver-2,15,49,51,-0.3358778625954199,9.687022900763358,28.41984732824427,0.295166015625,0.425048828125,-1.286376953125,14
440,831,Driver-3,15,0,44,0.8091603053435115,5.748091603053435,2.549618320610687,0.3291015625,-0.084716796875,-0.997802734375,73
441,1004,Driver-2,12,19,41,-0.5267175572519084,7.274809160305344,0.3053435114503817,0.038330078125,0.038330078125,-1.0419921875,94
442,1082,Driver-3,12,25,19,4.305343511450381,5.442748091603053,0.9770992366412212,0.62255859375,-0.23486328125,-0.987060546875,105
443,234,Driver-2,15,38,15,-11.87022900763359,-0.1145038167938931,39.96946564885496,0.3125,0.377197265625,-0.699951171875,17
444,432,Driver-1,14,30,49,-0.3282442748091603,4.786259541984733,0.7938931297709924,0.149169921875,-0.078125,-1.01806640625,35
445,860,Driver-3,14,58,37,-1.419847328244275,3.977099236641221,0.3816793893129771,0.230224609375,-0.13037109375,-0.872802734375,75
446,373,Driver-1,14,27,2,-3.709923664122138,5.793893129770993,-1.419847328244275,0.3046875,-0.197998046875,-1.033203125,28
447,1075,Driver-3,12,24,15,-2.122137404580153,4.801526717557252,1.16030534351145,0.673583984375,-0.325439453125,-0.99169921875,104
448,372,Driver-1,14,27,2,1.320610687022901,9.213740458015268,1.83206106870229,0.6435546875,-0.2158203125,-1.069580078125,28
449,99,Driver-1,15,44,40,1.732824427480916,5.068702290076335,-0.1374045801526718,0.393798828125,-0.18603515625,-0.926513671875,8
450,1065,Driver-3,12,23,58,-1.946564885496183,5.877862595419847,0.8320610687022901,0.092529296875,0.11181640625,-1.169677734375,103
451,304,Driver-3,15,32,59,0.1374045801526718,6.229007633587786,1.755725190839695,0.328125,-0.155029296875,-0.927490234375,22
452,835,Driver-3,15,0,47,4.786259541984733,4.854961832061068,1.923664122137405,0.40478515625,-0.19384765625,-1.077392578125,73
453,412,Driver-1,14,29,15,-5.442748091603053,4.725190839694656,0.5267175572519084,0.3037109375,-0.112060546875,-1.280517578125,32
454,707,Driver-2,15,22,33,-1.954198473282443,3.435114503816794,-0.8854961832061069,0.0517578125,-0.001708984375,-0.99072265625,62
455,286,Driver-3,15,33,41,-3.862595419847328,1.480916030534351,3.381679389312977,0.34912109375,-0.159423828125,-0.91064453125,21
456,882,Driver-3,14,56,11,-0.5877862595419847,4.099236641221374,0.6946564885496184,0.18408203125,-0.073486328125,-1.00146484375,77
457,1019,Driver-3,12,20,17,0.6030534351145038,4.900763358778626,1.770992366412214,0.45947265625,-0.2578125,-1.0771484375,96
458,993,Driver-2,12,18,54,5.679389312977099,2.442748091603054,1.465648854961832,0.678955078125,-0.305419921875,-0.9716796875,92
459,0,Driver-1,15,39,39,-0.4961832061068702,2.511450381679389,0.7022900763358778,0.226806640625,-0.13232421875,-1.010498046875,1
460,705,Driver-2,15,22,31,-2.618320610687023,1.969465648854962,-11.79389312977099,0.211181640625,-0.090576171875,-1.065673828125,62
461,637,Driver-1,15,16,21,-1.816793893129771,7.396946564885496,2.320610687022901,0.221435546875,-0.01806640625,-1.089111328125,56
462,26,Driver-1,15,40,25,-2.083969465648855,4.282442748091603,33.61832061068702,0.253173828125,0.180908203125,-1.148681640625,2
463,833,Driver-3,15,0,46,-2.717557251908397,1.854961832061069,1.816793893129771,0.228759765625,-0.135986328125,-1.054443359375,73
464,982,Driver-2,12,18,30,-3.870229007633588,4.847328244274809,1.206106870229008,0.11669921875,0.08251953125,-1.059814453125,91
465,481,Driver-2,14,33,18,5.351145038167939,2.526717557251908,1.816793893129771,0.525390625,-0.230224609375,-1.07177734375,40
466,563,Driver-3,14,18,12,1.801526717557252,2.50381679389313,0.3129770992366412,-0.069580078125,-0.07861328125,-1.029296875,49
467,329,Driver-3,15,31,9,-0.4503816793893129,4.297709923664122,0.8854961832061069,0.157470703125,-0.052001953125,-1.005859375,24
468,147,Driver-2,15,47,28,-0.7099236641221374,4.061068702290076,1.702290076335878,0.260986328125,-0.22265625,-0.98095703125,11
469,873,Driver-3,14,57,19,7.038167938931298,2.641221374045802,-26.14503816793893,-0.019775390625,-0.4990234375,-1.021728515625,76
470,688,Driver-1,15,21,11,0.3816793893129771,3.969465648854962,3.778625954198473,0.401611328125,-0.083251953125,-0.85302734375,61
471,491,Driver-2,14,33,47,-0.9236641221374046,2.106870229007634,1.022900763358779,0.1611328125,-0.1669921875,-1.058837890625,41
472,645,Driver-1,15,17,28,-1.251908396946565,-1.427480916030534,1.412213740458015,0.273681640625,-0.076904296875,-1.244140625,57
473,367,Driver-1,14,26,32,1.770992366412214,8.526717557251908,1.946564885496183,0.455322265625,-0.253173828125,-0.851318359375,27
474,607,Driver-1,15,14,10,-3.732824427480916,7.557251908396947,0.9389312977099236,0.13525390625,-0.053466796875,-0.878662109375,54
475,52,Driver-1,15,41,59,-4.259541984732825,6.351145038167939,18.6793893129771,0.21484375,0.31640625,-1.040283203125,4
476,697,Driver-1,15,21,21,2.656488549618321,-2.442748091603054,-27.61832061068702,0.00634765625,-0.343017578125,-0.899658203125,61
477,440,Driver-2,14,31,14,-0.6717557251908397,4.442748091603053,1.152671755725191,0.169921875,-0.07080078125,-1.010009765625,36
478,109,Driver-1,15,44,49,2.49618320610687,-1.381679389312977,13.35114503816794,0.132568359375,-0.229736328125,-1.00732421875,8
479,877,Driver-3,14,57,21,-5.83206106870229,9.6793893129771,-7.877862595419847,0.047119140625,-0.123291015625,-0.966064453125,76
480,156,Driver-2,15,48,11,-0.648854961832061,2.610687022900763,0.8244274809160306,0.384765625,-0.142822265625,-0.883544921875,12
481,414,Driver-1,14,29,49,-0.6412213740458015,4.557251908396947,0.7633587786259542,0.201416015625,-0.083984375,-1.0126953125,33
482,962,Driver-2,12,17,23,-0.2977099236641221,7.045801526717558,1.488549618320611,0.05078125,0.033935546875,-0.98388671875,88
483,927,Driver-1,12,15,49,-0.6793893129770993,5.534351145038168,0.6641221374045801,0.0908203125,0.10888671875,-1.042236328125,83
484,1054,Driver-3,12,22,32,1.465648854961832,4.236641221374046,2.763358778625954,0.64013671875,-0.37646484375,-0.93115234375,101
485,151,Driver-2,15,47,32,-14.29770992366412,4.862595419847328,33.14503816793893,0.188720703125,0.131591796875,-0.86767578125,11
486,15,Driver-1,15,40,17,4.251908396946565,0.0839694656488549,0.7404580152671756,0.324462890625,-0.19287109375,-0.878662109375,2
487,874,Driver-3,14,57,19,9.64885496183206,-5.068702290076335,-31.6412213740458,-0.220703125,-0.5556640625,-1.021728515625,76
488,140,Driver-2,15,47,21,-0.931297709923664,4.076335877862595,0.7557251908396947,0.19873046875,-0.086669921875,-0.9892578125,11
489,276,Driver-3,15,34,47,2.16793893129771,3.541984732824428,38.97709923664122,0.4697265625,0.361572265625,-1.132080078125,20
490,23,Driver-1,15,40,23,-7.045801526717558,1.129770992366412,6.709923664122138,0.246826171875,0.090576171875,-0.83740234375,2
491,500,Driver-2,14,34,12,2.83206106870229,7.213740458015267,0.5419847328244275,0.132080078125,0.00439453125,-0.831298828125,42
492,776,Driver-2,15,4,50,5.763358778625954,7.847328244274809,1.862595419847328,0.279296875,-0.0771484375,-1.1787109375,68
493,583,Driver-3,14,22,0,-0.3511450381679389,5.076335877862595,-1.282442748091603,0.150146484375,-0.04931640625,-0.7890625,51
494,202,Driver-2,15,50,34,-0.6870229007633588,3.816793893129771,-0.4809160305343512,0.347412109375,-0.107666015625,-0.908203125,15
495,615,Driver-1,15,15,17,-4.190839694656488,4.312977099236641,4.870229007633588,0.319580078125,-0.107666015625,-0.927001953125,55
496,811,Driver-3,15,2,15,-0.6335877862595419,1.076335877862595,0.2824427480916031,0.26611328125,-0.052734375,-0.9013671875,71
497,464,Driver-2,14,32,12,-11.66412213740458,7.732824427480916,1.946564885496183,0.390625,0.0576171875,-0.630615234375,38
498,514,Driver-2,14,35,2,-1.679389312977099,6.274809160305344,-0.9389312977099236,0.463134765625,-0.131591796875,-0.97412109375,44
499,691,Driver-1,15,21,15,4.511450381679389,6.83206106870229,-22.6412213740458,0.052001953125,-0.50927734375,-1.2919921875,61
500,832,Driver-3,15,0,45,-1.748091603053435,3.229007633587786,2.358778625954198,0.374267578125,-0.0673828125,-0.9765625,73
501,756,Driver-2,15,9,21,-3.282442748091603,2.068702290076336,2.725190839694656,0.341552734375,-0.072998046875,-0.951904296875,66
502,239,Driver-2,15,36,2,0.5648854961832062,7.595419847328245,1.786259541984733,0.416015625,-0.085205078125,-0.84033203125,18
503,931,Driver-1,12,15,50,-13.3587786259542,-8.679389312977099,9.33587786259542,0.397705078125,-0.062255859375,-1.224853515625,83
504,268,Driver-3,15,34,43,3.198473282442748,2.122137404580153,0.2442748091603053,0.3359375,-0.109619140625,-0.992919921875,20
505,90,Driver-1,15,44,6,-3.0,9.16030534351145,0.7786259541984732,0.230712890625,-0.075927734375,-1.091064453125,7
506,531,Driver-3,14,24,1,-4.259541984732825,2.053435114503817,2.045801526717557,0.478271484375,-0.128662109375,-1.036376953125,46
507,541,Driver-3,14,24,38,-0.2977099236641221,4.648854961832061,0.7938931297709924,0.184326171875,-0.0625,-1.02197265625,47
508,354,Driver-1,14,25,18,3.351145038167939,2.694656488549618,-0.1068702290076336,0.426025390625,-0.25390625,-0.9501953125,26
509,571,Driver-3,14,20,42,-3.389312977099237,2.030534351145038,1.557251908396946,0.36572265625,-0.12548828125,-0.881103515625,50
510,133,Driver-2,15,46,43,-6.412213740458015,6.076335877862595,4.183206106870229,0.23486328125,-0.022705078125,-0.713623046875,10
511,745,Driver-2,15,10,7,4.450381679389313,1.267175572519084,1.656488549618321,0.103515625,-0.130859375,-0.880126953125,65
512,918,Driver-1,12,15,31,-0.7786259541984732,7.541984732824427,0.6870229007633588,-0.0048828125,0.069091796875,-0.974365234375,82
513,38,Driver-1,15,41,12,-2.740458015267175,-10.35114503816794,36.47328244274809,0.111083984375,0.489990234375,-0.7939453125,3
514,598,Driver-3,14,21,5,-5.450381679389313,5.061068702290076,1.083969465648855,0.4658203125,-0.1962890625,-1.076904296875,53
515,1039,Driver-3,12,21,18,1.549618320610687,6.618320610687022,1.389312977099237,0.4248046875,-0.1767578125,-0.923583984375,99
516,1069,Driver-3,12,24,1,-1.984732824427481,4.213740458015267,-0.099236641221374,0.297607421875,-0.1083984375,-1.026611328125,103
517,695,Driver-1,15,21,19,0.8320610687022901,2.427480916030534,-8.305343511450381,-0.072265625,-0.153564453125,-1.036376953125,61
518,521,Driver-2,14,24,49,-0.6793893129770993,3.969465648854962,0.8549618320610687,0.18994140625,-0.071533203125,-0.989990234375,45
519,976,Driver-2,12,18,17,4.503816793893129,5.022900763358779,1.244274809160305,0.00927734375,0.034912109375,-0.947021484375,90
520,586,Driver-3,14,21,25,1.50381679389313,0.2900763358778626,1.83206106870229,0.2763671875,-0.160888671875,-0.979248046875,52
521,1046,Driver-3,12,21,39,0.6259541984732825,5.427480916030534,3.152671755725191,0.67041015625,-0.40673828125,-1.0078125,100
522,804,Driver-3,15,3,17,3.893129770992366,0.648854961832061,-41.38931297709924,-0.015380859375,-0.55810546875,-1.228759765625,70
523,676,Driver-1,15,20,22,-0.8244274809160306,1.954198473282443,1.786259541984733,0.392333984375,-0.160400390625,-0.779296875,60
524,552,Driver-3,14,23,33,2.786259541984733,-1.290076335877863,-4.923664122137405,0.1484375,-0.136962890625,-1.084716796875,48
525,123,Driver-1,15,45,28,0.4732824427480916,2.091603053435115,11.57251908396947,0.0869140625,0.139404296875,-1.029296875,9
526,113,Driver-1,15,45,19,-0.4961832061068702,5.511450381679389,0.8473282442748091,0.3134765625,-0.1298828125,-0.98583984375,9
527,380,Driver-1,14,27,27,-0.0687022900763358,2.870229007633588,1.931297709923664,0.456298828125,-0.17919921875,-0.9375,29
528,219,Driver-2,15,51,20,-0.4351145038167939,5.099236641221374,7.374045801526718,0.13427734375,0.109619140625,-0.9765625,16
529,594,Driver-3,14,21,3,0.3587786259541985,6.99236641221374,1.145038167938931,0.34326171875,-0.110107421875,-0.983642578125,53
530,713,Driver-2,15,13,9,-1.534351145038168,9.580152671755725,6.160305343511451,0.368408203125,-0.135498046875,-0.992431640625,63
531,184,Driver-2,15,49,45,-0.4809160305343512,4.900763358778626,0.549618320610687,0.355712890625,-0.157958984375,-0.97265625,14
532,50,Driver-1,15,41,57,-2.793893129770992,4.519083969465649,-0.1221374045801527,0.3203125,-0.14501953125,-1.01171875,4
533,565,Driver-3,14,18,12,2.083969465648855,-1.641221374045801,0.0076335877862595,-0.040283203125,-0.06787109375,-0.854736328125,49
534,666,Driver-1,15,19,45,-10.73282442748092,8.992366412213741,1.473282442748092,0.350341796875,-0.08984375,-1.00244140625,59
535,642,Driver-1,15,17,25,-0.2519083969465649,3.206106870229008,2.045801526717557,0.423828125,-0.197265625,-0.96044921875,57
536,210,Driver-2,15,51,11,-2.145038167938931,6.816793893129771,2.236641221374046,0.44091796875,-0.126953125,-0.934326171875,16
537,741,Driver-2,15,10,4,5.641221374045801,3.648854961832061,-28.38167938931298,-0.170654296875,-0.3349609375,-0.89208984375,65
538,371,Driver-1,14,27,1,-0.3893129770992366,2.526717557251908,0.3816793893129771,0.516845703125,-0.183349609375,-0.808349609375,28
539,1028,Driver-3,12,20,29,-1.648854961832061,3.488549618320611,0.5954198473282443,0.032470703125,0.05859375,-0.892822265625,97
540,995,Driver-2,12,19,29,-2.267175572519084,5.32824427480916,0.8778625954198473,-0.029541015625,0.137451171875,-1.027587890625,93
541,159,Driver-2,15,48,14,2.152671755725191,-0.5877862595419847,0.3129770992366412,0.100830078125,-0.048095703125,-0.848388671875,12
542,1068,Driver-3,12,24,0,0.5648854961832062,4.984732824427481,1.641221374045801,0.590576171875,-0.353515625,-0.875,103
543,881,Driver-3,14,56,11,-0.4122137404580153,4.091603053435114,0.4351145038167939,0.178955078125,-0.090576171875,-0.993408203125,77
544,435,Driver-1,14,30,51,0.0610687022900763,3.259541984732825,0.4351145038167939,0.504638671875,-0.18994140625,-0.926513671875,35
545,618,Driver-1,15,15,20,4.419847328244275,4.129770992366412,1.236641221374046,0.287353515625,-0.12353515625,-0.990234375,55
546,778,Driver-2,15,4,51,5.954198473282442,-3.877862595419847,-28.06106870229008,-0.160400390625,-0.594970703125,-0.743896484375,68
547,1112,Driver-3,12,26,30,-1.015267175572519,5.259541984732825,0.6564885496183206,0.308837890625,-0.090087890625,-1.023193359375,109
548,625,Driver-1,15,15,27,2.992366412213741,5.763358778625954,1.358778625954199,0.19140625,-0.055419921875,-1.04052734375,55
549,1109,Driver-3,12,26,27,-1.961832061068702,2.358778625954198,8.893129770992367,0.472900390625,-0.43115234375,-0.87353515625,109
550,59,Driver-1,15,42,35,-1.778625954198473,4.969465648854962,0.916030534351145,0.355712890625,-0.132080078125,-1.002685546875,5
551,919,Driver-1,12,15,31,2.053435114503817,5.358778625954199,0.6030534351145038,-0.060791015625,0.077392578125,-0.947265625,82
552,330,Driver-3,15,31,10,-1.022900763358779,4.122137404580153,0.8931297709923665,0.180908203125,-0.044189453125,-1.00634765625,24
553,356,Driver-1,14,25,19,1.358778625954199,8.725190839694656,-0.9465648854961832,0.40478515625,-0.25732421875,-0.862548828125,26
554,163,Driver-2,15,48,18,-12.24427480916031,14.3206106870229,42.96946564885496,0.347412109375,0.4443359375,-1.066650390625,12
555,393,Driver-1,14,28,7,10.15267175572519,5.564885496183206,1.213740458015267,0.419921875,-0.119873046875,-1.042236328125,30
556,765,Driver-2,15,7,15,4.396946564885496,2.374045801526718,-12.51145038167939,0.0703125,-0.507080078125,-1.05029296875,67
557,1041,Driver-3,12,21,19,4.114503816793893,8.01526717557252,1.32824427480916,0.69091796875,-0.320068359375,-0.938720703125,99
558,127,Driver-2,15,46,37,-1.251908396946565,3.267175572519084,-4.022900763358779,0.32421875,-0.17333984375,-0.9951171875,10
559,984,Driver-2,12,18,31,0.4656488549618321,2.725190839694656,1.473282442748092,0.580810546875,-0.145751953125,-1.023193359375,91
560,935,Driver-1,12,16,6,-1.213740458015267,3.145038167938931,0.9923664122137404,0.00390625,0.06103515625,-0.970703125,84
561,1018,Driver-3,12,20,16,-5.877862595419847,4.259541984732825,1.007633587786259,0.151611328125,-0.017822265625,-1.0068359375,96
562,662,Driver-1,15,19,40,-0.8320610687022901,3.969465648854962,0.6183206106870229,0.18896484375,-0.05859375,-0.989990234375,59
563,229,Driver-2,15,38,11,2.748091603053435,7.396946564885496,2.450381679389313,0.1767578125,-0.149169921875,-0.98095703125,17
564,667,Driver-1,15,19,46,0.6564885496183206,6.854961832061068,2.206106870229008,0.298828125,-0.134521484375,-1.158203125,59
565,729,Driver-2,15,10,58,3.015267175572519,-9.282442748091604,-24.68702290076336,-0.098876953125,-0.529052734375,-0.802490234375,64
566,743,Driver-2,15,10,6,7.053435114503817,2.854961832061069,-25.59541984732824,0.064208984375,-0.426513671875,-0.8203125,65
567,593,Driver-3,14,21,3,-1.908396946564886,4.145038167938932,0.8702290076335878,0.150634765625,-0.07958984375,-0.995361328125,53
568,556,Driver-3,14,23,35,-2.358778625954198,5.274809160305344,13.67175572519084,0.2197265625,0.1884765625,-0.9794921875,48
569,243,Driver-2,15,36,4,-4.870229007633588,0.6793893129770993,-2.854961832061069,0.37548828125,-0.218505859375,-0.9951171875,18
570,41,Driver-1,15,41,14,0.1908396946564886,-0.7480916030534351,23.36641221374046,0.113525390625,0.356201171875,-0.8330078125,3
571,817,Driver-3,15,2,20,-1.374045801526718,1.900763358778626,-24.05343511450382,-0.090087890625,-0.244140625,-0.9248046875,71
572,1061,Driver-3,12,22,48,1.49618320610687,4.206106870229007,1.740458015267176,0.5458984375,-0.17822265625,-0.9619140625,102
573,809,Driver-3,15,2,14,-4.045801526717558,3.687022900763359,3.847328244274809,0.346923828125,-0.15185546875,-0.991455078125,71
574,385,Driver-1,14,27,30,1.053435114503817,7.091603053435114,1.061068702290076,0.242431640625,0.08056640625,-0.81005859375,29
575,714,Driver-2,15,13,10,0.3206106870229007,2.106870229007634,1.908396946564886,0.095703125,-0.047119140625,-1.102783203125,63
576,1042,Driver-3,12,21,20,-1.66412213740458,4.290076335877862,1.137404580152672,0.60205078125,-0.279541015625,-1.01708984375,99
577,1016,Driver-3,12,20,15,5.312977099236641,3.091603053435115,0.8320610687022901,-0.029052734375,0.080810546875,-0.94921875,96
578,852,Driver-3,15,0,9,5.877862595419847,0.0458015267175572,-28.01526717557252,0.115234375,-0.59326171875,-1.011962890625,74
579,262,Driver-3,15,35,26,-4.015267175572519,3.717557251908397,22.72519083969466,0.14697265625,0.299072265625,-1.2021484375,19
580,321,Driver-3,15,31,42,0.9770992366412212,0.6641221374045801,-1.419847328244275,0.23046875,-0.181884765625,-0.955078125,23
581,136,Driver-2,15,46,46,-5.603053435114504,5.67175572519084,19.56488549618321,0.18603515625,0.029296875,-0.91552734375,10
582,250,Driver-2,15,36,8,-5.312977099236641,-5.152671755725191,41.36641221374046,0.19140625,0.623291015625,-0.941162109375,18
583,686,Driver-1,15,21,8,-0.4351145038167939,3.908396946564885,0.9465648854961832,0.225341796875,-0.0654296875,-0.917236328125,61
584,958,Driver-2,12,17,6,-0.0305343511450381,4.961832061068702,0.366412213740458,0.561767578125,-0.1943359375,-0.97314453125,87
585,443,Driver-2,14,31,16,-2.603053435114504,4.076335877862595,1.526717557251908,0.605712890625,-0.187255859375,-0.990478515625,36
586,715,Driver-2,15,13,11,-0.0534351145038167,7.984732824427481,2.908396946564885,0.39501953125,-0.075439453125,-0.884765625,63
587,288,Driver-3,15,33,42,1.427480916030534,5.541984732824427,0.931297709923664,0.221923828125,-0.191162109375,-1.008544921875,21
588,526,Driver-2,14,24,52,1.748091603053435,2.648854961832061,-2.0,0.548583984375,-0.3427734375,-1.056640625,45
589,1001,Driver-2,12,19,32,0.1679389312977099,4.572519083969466,1.290076335877863,0.592529296875,-0.28515625,-0.99609375,93
590,928,Driver-1,12,15,49,-0.1450381679389313,3.809160305343511,0.9847328244274808,0.024658203125,0.01123046875,-0.924560546875,83
591,264,Driver-3,15,35,27,-5.419847328244275,5.32824427480916,35.86259541984733,0.367919921875,0.318359375,-1.337646484375,19
592,310,Driver-3,15,31,38,-1.450381679389313,5.358778625954199,3.106870229007634,0.34375,-0.16650390625,-1.12255859375,23
593,164,Driver-2,15,48,19,2.671755725190839,6.343511450381679,20.09160305343512,0.367431640625,0.179443359375,-0.9990234375,12
594,1113,Driver-3,12,26,31,-0.8778625954198473,4.488549618320611,0.0458015267175572,0.09814453125,-0.015869140625,-1.001220703125,109
595,916,Driver-1,12,14,58,0.0534351145038167,0.3511450381679389,0.7862595419847328,0.11572265625,0.0380859375,-0.986083984375,81
596,287,Driver-3,15,33,41,-1.557251908396946,0.7175572519083969,0.0839694656488549,0.27392578125,-0.316650390625,-0.93896484375,21
597,844,Driver-3,15,0,4,-2.801526717557252,5.045801526717558,1.748091603053435,0.430419921875,-0.15087890625,-0.9453125,74
598,847,Driver-3,15,0,6,-4.885496183206107,7.419847328244275,0.9770992366412212,0.274169921875,-0.048095703125,-1.013671875,74
599,370,Driver-1,14,27,1,-0.5877862595419847,5.366412213740458,1.877862595419847,0.3564453125,-0.18603515625,-1.053466796875,28
600,659,Driver-1,15,18,15,-1.938931297709924,2.801526717557252,-23.96946564885496,0.105712890625,-0.23681640625,-1.1123046875,58
601,542,Driver-3,14,24,39,-0.8091603053435115,4.137404580152672,0.8473282442748091,0.181396484375,-0.068359375,-1.009521484375,47
602,431,Driver-1,14,30,48,-0.7709923664122137,5.106870229007634,-0.3511450381679389,0.16845703125,-0.0732421875,-0.992431640625,35
603,550,Driver-3,14,23,32,-9.83969465648855,4.755725190839694,3.717557251908397,0.304931640625,-0.01611328125,-0.804443359375,48
604,351,Driver-1,14,25,17,-0.9083969465648856,4.534351145038168,0.8320610687022901,0.17578125,-0.1005859375,-1.01318359375,26
605,483,Driver-2,14,33,20,1.648854961832061,4.549618320610687,4.419847328244275,0.088623046875,0.049560546875,-0.8818359375,40
606,389,Driver-1,14,28,4,-3.33587786259542,4.290076335877862,0.9847328244274808,0.4921875,-0.070068359375,-0.82470703125,30
607,889,Driver-3,14,56,15,-0.8778625954198473,4.343511450381679,1.045801526717557,0.192626953125,-0.055908203125,-0.991455078125,77
608,125,Driver-1,15,45,30,-3.053435114503817,0.648854961832061,23.10687022900763,-0.0146484375,0.27685546875,-0.8974609375,9
609,638,Driver-1,15,17,20,-0.9465648854961832,4.557251908396947,0.8015267175572519,0.183349609375,-0.0615234375,-1.0146484375,57
610,763,Driver-2,15,7,13,3.076335877862595,0.4045801526717557,1.923664122137405,0.289794921875,-0.22509765625,-1.066650390625,67
611,110,Driver-1,15,44,49,-7.419847328244275,-0.1297709923664122,1.396946564885496,-0.004150390625,-0.077392578125,-1.149169921875,8
612,650,Driver-1,15,18,4,-0.7633587786259542,4.038167938931298,0.900763358778626,0.1826171875,-0.07373046875,-0.99560546875,58
613,547,Driver-3,14,24,41,-0.6717557251908397,4.236641221374046,0.9847328244274808,0.193115234375,-0.0634765625,-1.009521484375,47
614,980,Driver-2,12,18,19,-1.984732824427481,5.351145038167939,1.175572519083969,0.640869140625,-0.326416015625,-0.991455078125,90
615,493,Driver-2,14,33,48,0.0,2.748091603053435,0.2442748091603053,0.061279296875,-0.122314453125,-1.146484375,41
616,294,Driver-3,15,32,55,-1.0,5.854961832061068,-0.1984732824427481,0.363525390625,-0.208740234375,-0.849853515625,22
617,12,Driver-1,15,39,48,-9.473282442748092,4.824427480916031,40.45801526717558,0.15478515625,0.652099609375,-0.760498046875,1
618,731,Driver-2,15,11,0,3.946564885496183,-1.610687022900763,-38.7557251908397,-0.1220703125,-0.634033203125,-1.15771484375,64
619,806,Driver-3,15,2,11,-1.351145038167939,4.572519083969466,2.083969465648855,0.378173828125,-0.106201171875,-0.958251953125,71
620,352,Driver-1,14,25,17,0.7862595419847328,3.969465648854962,0.5877862595419847,0.32275390625,-0.140380859375,-0.91162109375,26
621,1095,Driver-3,12,26,1,-0.3816793893129771,6.061068702290076,1.083969465648855,0.631591796875,-0.34423828125,-0.95751953125,107
622,487,Driver-2,14,33,43,-1.603053435114504,2.091603053435115,3.900763358778626,0.437255859375,-0.105224609375,-0.992431640625,41
623,787,Driver-3,15,3,58,3.16793893129771,0.8625954198473282,0.4580152671755725,0.176025390625,-0.073974609375,-0.91748046875,69
624,55,Driver-1,15,42,1,-4.916030534351145,7.320610687022901,18.44274809160305,0.29833984375,0.156982421875,-0.818359375,4
625,91,Driver-1,15,44,7,1.519083969465649,7.389312977099237,-1.32824427480916,0.37158203125,-0.291015625,-1.060791015625,7
626,798,Driver-3,15,3,12,3.076335877862595,-4.190839694656488,-0.0229007633587786,0.197998046875,-0.166259765625,-0.77490234375,70
627,803,Driver-3,15,3,16,5.977099236641221,-7.694656488549619,-37.56488549618321,-0.052001953125,-0.50537109375,-0.898193359375,70
628,757,Driver-2,15,9,22,-3.763358778625954,0.5877862595419847,3.732824427480916,0.1162109375,-0.084228515625,-1.043212890625,66
629,1035,Driver-3,12,20,45,-1.305343511450382,3.66412213740458,1.053435114503817,0.103515625,0.035400390625,-1.031494140625,98
630,938,Driver-1,12,16,7,-0.1145038167938931,5.137404580152672,0.5877862595419847,0.60205078125,-0.32958984375,-0.965087890625,84
631,402,Driver-1,14,28,46,2.061068702290076,-2.801526717557252,-0.2137404580152672,0.1337890625,-0.078857421875,-1.2158203125,31
632,812,Driver-3,15,2,16,6.923664122137405,8.816793893129772,2.549618320610687,0.212646484375,-0.021728515625,-1.367919921875,71
633,704,Driver-2,15,22,30,-11.6030534351145,0.8625954198473282,-50.25954198473283,-0.252685546875,-0.74365234375,-0.886474609375,62
634,893,Driver-1,12,13,19,1.145038167938931,7.564885496183206,1.137404580152672,0.028564453125,0.0458984375,-1.001953125,78
635,167,Driver-2,15,48,22,-5.633587786259542,-0.6870229007633588,26.54961832061069,0.1025390625,0.247314453125,-0.806884765625,12
636,702,Driver-2,15,22,28,8.664122137404581,10.43511450381679,5.923664122137405,0.38427734375,0.06103515625,-1.14599609375,62
637,923,Driver-1,12,15,32,-0.7175572519083969,5.557251908396947,1.625954198473282,-0.005126953125,0.1025390625,-1.024658203125,82
638,785,Driver-3,15,3,57,-3.748091603053435,3.763358778625954,2.961832061068702,0.3046875,-0.0947265625,-1.01171875,69
639,649,Driver-1,15,17,32,-5.824427480916031,8.16030534351145,1.465648854961832,0.139404296875,-0.225830078125,-0.954345703125,57
640,657,Driver-1,15,18,12,6.725190839694656,-0.7633587786259542,-30.16030534351145,-0.0771484375,-0.563232421875,-0.834716796875,58
641,399,Driver-1,14,28,44,-1.633587786259542,7.190839694656488,-1.870229007633588,0.32861328125,-0.050048828125,-0.913818359375,31
642,18,Driver-1,15,40,19,0.3053435114503817,-1.129770992366412,0.5648854961832062,0.37060546875,-0.1787109375,-0.954833984375,2
643,129,Driver-2,15,46,39,-3.648854961832061,6.122137404580153,2.267175572519084,0.3525390625,-0.130126953125,-1.0966796875,10
644,465,Driver-2,14,32,12,7.290076335877862,13.2824427480916,0.900763358778626,0.1845703125,-0.09912109375,-0.91162109375,38
645,398,Driver-1,14,28,44,-3.541984732824428,4.923664122137405,-1.213740458015267,0.6083984375,-0.192626953125,-0.916748046875,31
646,937,Driver-1,12,16,6,1.251908396946565,9.122137404580153,2.725190839694656,0.658447265625,-0.251708984375,-1.02978515625,84
647,1008,Driver-2,12,19,43,-3.763358778625954,1.992366412213741,0.931297709923664,0.000732421875,0.06982421875,-1.115478515625,94
648,1012,Driver-3,12,19,58,1.015267175572519,8.65648854961832,1.885496183206107,0.52783203125,-0.319091796875,-1.0234375,95
649,1099,Driver-3,12,26,4,-1.251908396946565,4.320610687022901,0.8320610687022901,0.119873046875,0.035888671875,-0.976806640625,107
650,867,Driver-3,14,57,15,-4.595419847328245,3.725190839694656,2.343511450381679,0.28857421875,-0.06982421875,-0.965087890625,76
651,944,Driver-1,12,16,22,1.343511450381679,6.465648854961832,1.534351145038168,0.617431640625,-0.20361328125,-1.05517578125,85
652,517,Driver-2,14,35,4,6.587786259541985,5.938931297709924,2.351145038167939,0.27783203125,-0.195556640625,-1.14501953125,44
653,537,Driver-3,14,24,4,2.977099236641221,0.7938931297709924,0.8015267175572519,0.100341796875,-0.032958984375,-0.947021484375,46
654,142,Driver-2,15,47,23,-0.0839694656488549,3.786259541984733,-0.1374045801526718,0.346435546875,-0.1640625,-0.947265625,11
655,228,Driver-2,15,38,11,-1.67175572519084,-0.3282442748091603,1.106870229007634,0.24951171875,-0.03125,-0.8515625,17
656,220,Driver-2,15,51,22,-0.8091603053435115,4.931297709923665,2.137404580152672,0.171875,0.00244140625,-0.900634765625,16
657,117,Driver-1,15,45,23,-4.053435114503817,2.694656488549618,2.099236641221374,0.19970703125,0.012939453125,-0.919677734375,9
658,216,Driver-2,15,51,17,3.557251908396946,8.83206106870229,8.961832061068701,0.16064453125,0.041748046875,-0.949951171875,16
659,1103,Driver-3,12,26,14,0.916030534351145,5.541984732824427,0.7480916030534351,0.616943359375,-0.32861328125,-0.96240234375,108
660,207,Driver-2,15,50,39,-3.083969465648855,16.79389312977099,18.11450381679389,-0.0634765625,0.47216796875,-0.93505859375,15
661,560,Driver-3,14,18,11,-14.64885496183206,-0.1221374045801527,4.946564885496183,0.04931640625,-0.014404296875,-0.794921875,49
662,1014,Driver-3,12,19,59,-3.877862595419847,3.045801526717557,0.5114503816793893,0.732177734375,-0.323974609375,-1.05908203125,95
663,203,Driver-2,15,50,35,-8.251908396946565,10.08396946564885,8.854961832061068,0.3525390625,0.136962890625,-1.00927734375,15
664,708,Driver-2,15,22,35,1.320610687022901,1.16030534351145,-14.41984732824428,0.00439453125,-0.118408203125,-0.98828125,62
665,619,Driver-1,15,15,21,2.931297709923664,8.244274809160306,2.480916030534351,0.153564453125,0.00634765625,-0.985107421875,55
666,911,Driver-1,12,14,57,-3.106870229007634,2.328244274809161,1.076335877862595,0.016357421875,0.090576171875,-1.00341796875,81
667,647,Driver-1,15,17,30,12.77862595419847,-3.679389312977099,-43.11450381679389,-0.147216796875,-0.5390625,-0.935546875,57
668,355,Driver-1,14,25,19,-1.50381679389313,3.183206106870229,-1.656488549618321,0.3837890625,-0.1416015625,-0.919677734375,26
669,1107,Driver-3,12,26,25,1.404580152671756,2.740458015267175,0.1374045801526718,0.103515625,0.07470703125,-1.012939453125,109
670,876,Driver-3,14,57,21,-6.015267175572519,3.458015267175572,-22.50381679389313,0.11962890625,-0.24609375,-0.8994140625,76
671,238,Driver-2,15,36,2,0.8931297709923665,2.206106870229008,1.473282442748092,0.507080078125,-0.122802734375,-1.037841796875,18
672,1089,Driver-3,12,25,39,-4.694656488549619,1.778625954198473,1.267175572519084,0.575927734375,-0.162353515625,-0.93994140625,106
673,1084,Driver-3,12,25,21,-1.038167938931298,3.702290076335878,1.022900763358779,0.384033203125,-0.13818359375,-1.009765625,105
674,963,Driver-2,12,17,23,-0.1526717557251908,7.282442748091603,2.389312977099237,0.5390625,-0.13720703125,-1.270751953125,88
675,275,Driver-3,15,34,46,-11.37404580152672,4.236641221374046,19.67175572519084,0.425048828125,0.197265625,-1.261474609375,20
676,87,Driver-1,15,44,4,-0.099236641221374,2.221374045801527,-1.244274809160305,0.28759765625,-0.165283203125,-0.8203125,7
677,724,Driver-2,15,10,53,-3.244274809160305,4.778625954198473,3.557251908396946,0.3271484375,-0.102783203125,-0.963134765625,64
678,680,Driver-1,15,20,27,5.625954198473282,-0.0534351145038167,-24.88549618320611,-0.005126953125,-0.54931640625,-0.7744140625,60
679,888,Driver-3,14,56,14,-0.7480916030534351,3.931297709923664,0.5801526717557252,0.17626953125,-0.07568359375,-0.988525390625,77
680,836,Driver-3,15,0,48,-5.519083969465649,5.496183206106871,0.8854961832061069,0.218505859375,-0.061767578125,-0.854736328125,73
681,489,Driver-2,14,33,45,-1.740458015267176,1.297709923664122,2.656488549618321,0.427001953125,-0.17138671875,-0.930908203125,41
682,533,Driver-3,14,24,2,-2.572519083969466,2.198473282442748,-1.030534351145038,0.5166015625,-0.18212890625,-0.7685546875,46
683,752,Driver-2,15,9,17,-1.145038167938931,5.282442748091603,-21.44274809160305,0.020751953125,-0.461669921875,-0.913818359375,66
684,800,Driver-3,15,3,14,-2.984732824427481,11.61068702290076,1.610687022900763,0.36865234375,-0.001953125,-1.004638671875,70
685,1097,Driver-3,12,26,3,-1.358778625954199,4.732824427480916,1.458015267175573,0.525390625,-0.217529296875,-1.005859375,107
686,777,Driver-2,15,4,51,-1.213740458015267,10.77862595419847,-2.458015267175572,0.412353515625,-0.2216796875,-0.960693359375,68
687,251,Driver-2,15,36,9,-4.641221374045801,2.267175572519084,21.74809160305344,0.314697265625,0.1181640625,-1.153076171875,18
688,558,Driver-3,14,18,11,-5.190839694656488,7.732824427480916,2.893129770992366,0.19384765625,-0.149169921875,-0.792724609375,49
689,157,Driver-2,15,48,12,-3.122137404580153,1.969465648854962,1.32824427480916,0.30810546875,-0.20751953125,-0.99658203125,12
690,31,Driver-1,15,41,7,-1.022900763358779,4.480916030534351,0.5725190839694656,0.37109375,-0.128173828125,-1.0087890625,3
691,890,Driver-1,12,13,18,-1.610687022900763,4.984732824427481,1.045801526717557,0.056396484375,0.00390625,-1.034912109375,78
692,498,Driver-2,14,34,10,-2.33587786259542,-1.267175572519084,1.175572519083969,0.43310546875,-0.188720703125,-0.85986328125,42
693,166,Driver-2,15,48,21,-2.458015267175572,4.519083969465649,27.20610687022901,0.24853515625,0.345703125,-1.09130859375,12
694,460,Driver-2,14,32,9,4.732824427480916,5.839694656488549,1.618320610687023,0.4541015625,-0.231201171875,-0.969970703125,38
695,256,Driver-3,15,35,23,-2.007633587786259,5.534351145038168,2.404580152671756,0.22607421875,-0.09716796875,-0.859130859375,19
696,989,Driver-2,12,18,53,-4.480916030534351,4.290076335877862,0.2900763358778626,0.14453125,-0.023193359375,-1.072021484375,92
697,347,Driver-3,15,28,6,0.1755725190839695,-2.328244274809161,-1.793893129770992,0.2802734375,-0.115966796875,-1.0078125,25
698,162,Driver-2,15,48,17,-9.49618320610687,11.68702290076336,30.45801526717557,0.277587890625,0.3427734375,-1.003662109375,12
699,78,Driver-1,15,43,24,-1.66412213740458,7.068702290076335,0.2977099236641221,0.20556640625,-0.149169921875,-1.03173828125,6
700,947,Driver-2,12,16,49,-0.4274809160305343,2.251908396946565,0.7251908396946565,0.037353515625,0.051513671875,-1.01708984375,86
701,842,Driver-3,15,0,3,-1.259541984732824,4.488549618320611,0.9465648854961832,0.246337890625,-0.0791015625,-1.000732421875,74
702,559,Driver-3,14,18,11,-1.931297709923664,5.847328244274809,3.809160305343511,0.206298828125,0.024658203125,-0.940673828125,49
703,77,Driver-1,15,43,23,-1.137404580152672,3.251908396946565,0.4274809160305343,0.3603515625,-0.21923828125,-1.115966796875,6
704,762,Driver-2,15,7,12,0.5114503816793893,7.763358778625954,3.732824427480916,0.2802734375,-0.147216796875,-0.99169921875,67
705,1110,Driver-3,12,26,28,-0.4351145038167939,5.396946564885496,1.282442748091603,0.4599609375,-0.22705078125,-0.967041015625,109
706,102,Driver-1,15,44,42,-2.603053435114504,7.251908396946565,2.862595419847328,0.326171875,-0.063232421875,-1.059814453125,8
707,1034,Driver-3,12,20,44,-1.068702290076336,4.419847328244275,1.175572519083969,0.280029296875,-0.051513671875,-0.985595703125,98
708,900,Driver-1,12,14,6,-0.6641221374045801,5.091603053435114,0.0305343511450381,-0.025390625,0.080810546875,-1.089599609375,79
709,36,Driver-1,15,41,10,-9.84732824427481,1.931297709923664,24.27480916030534,0.247314453125,0.500732421875,-1.021728515625,3
710,590,Driver-3,14,21,26,-8.221374045801527,7.099236641221374,0.4503816793893129,0.2177734375,-0.161865234375,-1.014404296875,52
711,204,Driver-2,15,50,36,-5.526717557251908,9.122137404580153,40.48091603053435,0.28662109375,0.7685546875,-1.14794921875,15
712,177,Driver-2,15,48,54,0.6335877862595419,9.618320610687023,17.68702290076336,0.288818359375,0.017333984375,-1.00732421875,13
713,320,Driver-3,15,31,42,-0.9923664122137404,2.160305343511451,0.3969465648854962,0.2353515625,-0.042724609375,-0.900146484375,23
714,482,Driver-2,14,33,19,-2.49618320610687,11.09160305343512,3.351145038167939,0.498046875,-0.235595703125,-1.35986328125,40
715,1079,Driver-3,12,25,16,-2.732824427480916,1.992366412213741,1.274809160305344,-0.014892578125,0.13330078125,-0.964599609375,105
716,581,Driver-3,14,21,59,-6.038167938931298,6.106870229007634,-0.2900763358778626,0.4052734375,-0.244384765625,-0.997802734375,51
717,438,Driver-1,14,30,53,-2.33587786259542,-3.549618320610687,2.580152671755725,0.21240234375,-0.151123046875,-0.810302734375,35
718,728,Driver-2,15,10,57,-2.412213740458015,7.106870229007634,0.5419847328244275,0.074462890625,-0.1474609375,-0.862060546875,64
719,265,Driver-3,15,35,28,-3.450381679389313,8.549618320610687,38.6793893129771,0.34375,0.408203125,-0.829345703125,19
720,433,Driver-1,14,30,50,1.679389312977099,5.534351145038168,1.763358778625954,0.55029296875,-0.193603515625,-0.88916015625,35
721,884,Driver-3,14,56,12,-0.8244274809160306,4.152671755725191,0.7938931297709924,0.183837890625,-0.080078125,-1.004150390625,77
722,66,Driver-1,15,42,40,-4.961832061068702,6.717557251908397,13.16030534351145,0.27490234375,0.237548828125,-1.005859375,5
723,709,Driver-2,15,22,36,1.412213740458015,0.0381679389312977,-24.15267175572519,-0.014892578125,-0.272705078125,-0.9716796875,62
724,782,Driver-3,15,3,54,-0.8702290076335878,5.145038167938932,1.694656488549618,0.37841796875,-0.10302734375,-1.010986328125,69
725,1047,Driver-3,12,21,39,-5.717557251908397,5.190839694656488,1.541984732824427,0.630859375,-0.4501953125,-0.983154296875,100
726,760,Driver-2,15,7,10,3.274809160305344,3.755725190839695,2.030534351145038,0.276611328125,-0.1025390625,-1.04541015625,67
727,566,Driver-3,14,20,41,-0.6946564885496184,4.679389312977099,1.396946564885496,0.211181640625,-0.06494140625,-0.990478515625,50
728,182,Driver-2,15,49,43,-1.137404580152672,4.099236641221374,0.7709923664122137,0.17724609375,-0.096923828125,-0.99365234375,14
729,555,Driver-3,14,23,34,4.114503816793893,7.305343511450381,4.541984732824427,0.08447265625,0.116943359375,-0.87255859375,48
730,602,Driver-1,15,14,4,-1.32824427480916,4.381679389312978,1.122137404580153,0.162353515625,-0.067138671875,-0.972900390625,54
731,188,Driver-2,15,49,49,0.916030534351145,2.183206106870229,-0.1068702290076336,0.3056640625,-0.154296875,-0.888427734375,14
732,929,Driver-1,12,15,49,-1.061068702290076,5.770992366412214,0.7938931297709924,0.016845703125,0.076904296875,-0.9140625,83
733,187,Driver-2,15,49,48,-0.6870229007633588,-0.1221374045801527,1.206106870229008,0.269287109375,-0.04931640625,-0.942138671875,14
734,467,Driver-2,14,32,49,-0.1603053435114504,4.267175572519084,0.8473282442748091,0.2001953125,-0.109375,-1.009033203125,39
735,240,Driver-2,15,36,3,-5.519083969465649,6.045801526717558,1.580152671755725,0.316162109375,-0.00244140625,-0.91259765625,18
736,725,Driver-2,15,10,54,1.679389312977099,4.251908396946565,0.4198473282442748,0.3154296875,-0.12744140625,-1.217041015625,64
737,823,Driver-3,15,1,24,0.8244274809160306,7.244274809160306,1.656488549618321,0.209716796875,-0.027099609375,-0.960693359375,72
738,396,Driver-1,14,28,43,-0.2137404580152672,4.221374045801527,0.8854961832061069,0.26123046875,-0.13232421875,-1.034912109375,31
739,678,Driver-1,15,20,25,0.3587786259541985,10.3587786259542,4.106870229007634,0.246337890625,-0.091796875,-1.102294921875,60
740,415,Driver-1,14,29,50,-0.3587786259541985,8.442748091603054,0.7633587786259542,0.282470703125,-0.061279296875,-0.979736328125,33
741,436,Driver-1,14,30,52,0.1984732824427481,3.740458015267175,1.717557251908397,0.424560546875,-0.234130859375,-1.022216796875,35
742,585,Driver-3,14,21,24,3.946564885496183,11.19083969465649,2.16793893129771,0.615966796875,-0.083740234375,-1.14013671875,52
743,696,Driver-1,15,21,20,4.389312977099237,-0.8854961832061069,-24.30534351145038,-0.035400390625,-0.326904296875,-0.995849609375,61
744,528,Driver-2,14,24,53,-5.053435114503817,1.068702290076336,3.763358778625954,0.304931640625,-0.104248046875,-0.838623046875,45
745,1005,Driver-2,12,19,42,2.595419847328244,7.984732824427481,-1.251908396946565,0.5859375,-0.1591796875,-0.9970703125,94
746,4,Driver-1,15,39,42,-0.6641221374045801,8.030534351145038,0.9618320610687024,0.364990234375,-0.13232421875,-1.001220703125,1
747,343,Driver-3,15,28,5,-0.9083969465648856,5.106870229007634,0.4961832061068702,0.387939453125,-0.07568359375,-1.015380859375,25
748,797,Driver-3,15,3,11,1.473282442748092,6.137404580152672,3.748091603053435,0.295166015625,-0.1640625,-0.94873046875,70
749,75,Driver-1,15,43,21,-9.106870229007631,10.29770992366412,2.610687022900763,0.358154296875,-0.10205078125,-1.008544921875,6
750,215,Driver-2,15,51,16,2.839694656488549,5.435114503816794,0.4809160305343512,0.22119140625,-0.217529296875,-1.1416015625,16
751,200,Driver-2,15,50,32,1.183206106870229,2.419847328244275,0.7938931297709924,0.36376953125,-0.23681640625,-0.890380859375,15
752,143,Driver-2,15,47,24,0.6946564885496184,2.809160305343511,0.5114503816793893,0.385009765625,-0.175048828125,-0.907958984375,11
753,446,Driver-2,14,31,18,-8.16793893129771,2.412213740458015,-0.1679389312977099,0.252685546875,-0.323486328125,-0.85595703125,36
754,690,Driver-1,15,21,13,-5.183206106870229,-1.465648854961832,5.824427480916031,0.273193359375,-0.116943359375,-0.850830078125,61
755,213,Driver-2,15,51,14,2.221374045801527,0.549618320610687,-0.8320610687022901,0.291748046875,-0.219482421875,-1.0224609375,16
756,196,Driver-2,15,50,27,-0.6259541984732825,4.229007633587786,1.015267175572519,0.172607421875,-0.092041015625,-0.994384765625,15
757,22,Driver-1,15,40,22,-3.412213740458015,6.610687022900763,0.6793893129770993,0.32861328125,-0.096435546875,-0.835205078125,2
758,681,Driver-1,15,20,28,8.122137404580153,-0.6106870229007634,-37.7557251908397,-0.201416015625,-0.669189453125,-0.970458984375,60
759,972,Driver-2,12,17,37,-0.2977099236641221,5.038167938931298,0.8015267175572519,0.621826171875,-0.262939453125,-1.000244140625,89
760,124,Driver-1,15,45,29,-3.709923664122138,8.916030534351146,13.51908396946565,0.257568359375,0.213623046875,-0.92236328125,9
761,223,Driver-2,15,51,25,-5.160305343511451,5.061068702290076,25.42748091603054,0.10400390625,0.1357421875,-0.910888671875,16
762,1062,Driver-3,12,22,49,1.885496183206107,5.0,2.083969465648855,0.5341796875,-0.281982421875,-0.907470703125,102
763,218,Driver-2,15,51,19,-9.34351145038168,0.6106870229007634,39.66412213740458,0.279296875,0.3408203125,-0.83349609375,16
764,470,Driver-2,14,32,52,-0.4580152671755725,6.0,1.312977099236641,0.53662109375,-0.177978515625,-1.012939453125,39
765,139,Driver-2,15,46,49,-0.4732824427480916,-0.916030534351145,21.0,-0.06005859375,0.230224609375,-1.032470703125,10
766,546,Driver-3,14,24,41,-0.9465648854961832,4.114503816793893,0.8702290076335878,0.197509765625,-0.06787109375,-0.986328125,47
767,668,Driver-1,15,19,47,2.519083969465649,4.885496183206107,-2.022900763358779,0.15576171875,-0.17236328125,-0.921875,59
768,416,Driver-1,14,29,50,-2.885496183206107,2.297709923664122,-1.045801526717557,0.483154296875,-0.201904296875,-0.8583984375,33
769,449,Driver-2,14,31,40,-0.6717557251908397,4.374045801526718,0.732824427480916,0.201416015625,-0.085205078125,-1.004150390625,37
770,46,Driver-1,15,41,54,-3.419847328244275,5.732824427480916,2.022900763358779,0.34521484375,-0.178466796875,-0.95556640625,4
771,941,Driver-1,12,16,21,-0.8396946564885496,7.061068702290076,1.251908396946565,-0.009765625,0.08251953125,-1.080810546875,85
772,306,Driver-3,15,33,0,1.877862595419847,3.312977099236641,-0.7022900763358778,0.20263671875,-0.1201171875,-0.943359375,22
773,570,Driver-3,14,20,42,-0.3740458015267176,2.66412213740458,0.916030534351145,0.458740234375,-0.138427734375,-0.88623046875,50
774,21,Driver-1,15,40,21,-1.374045801526718,7.412213740458015,-3.351145038167939,0.392333984375,-0.198486328125,-0.9794921875,2
775,711,Driver-2,15,13,7,-2.022900763358779,5.015267175572519,5.854961832061068,0.3515625,-0.12548828125,-0.978515625,63
776,693,Driver-1,15,21,17,4.442748091603053,3.618320610687023,-9.748091603053435,0.32958984375,-0.235107421875,-1.078369140625,61
777,772,Driver-2,15,4,47,-0.2290076335877863,3.305343511450382,1.961832061068702,0.314697265625,-0.07666015625,-0.97802734375,68
778,770,Driver-2,15,4,45,-0.7251908396946565,4.534351145038168,1.122137404580153,0.3291015625,-0.119140625,-0.974853515625,68
779,374,Driver-1,14,27,3,-5.694656488549619,4.778625954198473,-0.015267175572519,0.465087890625,-0.1669921875,-0.8388671875,28
780,930,Driver-1,12,15,50,-3.793893129770992,10.13740458015267,0.816793893129771,0.074462890625,0.04052734375,-0.8466796875,83
781,610,Driver-1,15,14,13,-3.618320610687023,-1.145038167938931,-39.42748091603053,-0.15185546875,-0.4423828125,-0.953369140625,54
782,922,Driver-1,12,15,32,-0.0229007633587786,4.984732824427481,1.603053435114504,0.01123046875,0.0693359375,-0.977783203125,82
783,611,Driver-1,15,14,14,-2.618320610687023,1.625954198473282,-18.34351145038168,0.10302734375,-0.15380859375,-0.946044921875,54
784,1022,Driver-3,12,20,18,-0.4885496183206107,4.297709923664122,0.9083969465648856,0.4775390625,-0.21728515625,-0.97998046875,96
785,644,Driver-1,15,17,27,-2.656488549618321,6.763358778625954,1.091603053435114,0.09033203125,0.0908203125,-0.947021484375,57
786,484,Driver-2,14,33,21,0.6946564885496184,5.633587786259542,7.549618320610687,0.08837890625,0.0771484375,-1.23681640625,40
787,222,Driver-2,15,51,24,-4.702290076335878,4.900763358778626,11.0763358778626,0.144287109375,0.1416015625,-0.949951171875,16
788,953,Driver-2,12,17,4,-1.320610687022901,5.068702290076335,0.1145038167938931,-0.023681640625,0.05029296875,-1.075439453125,87
789,509,Driver-2,14,34,41,2.816793893129771,3.977099236641221,0.6946564885496184,0.0888671875,-0.09521484375,-0.9228515625,43
790,54,Driver-1,15,42,0,-7.022900763358779,13.15267175572519,40.33587786259542,0.352294921875,0.2744140625,-1.00244140625,4
791,1067,Driver-3,12,23,59,5.633587786259542,6.435114503816794,1.992366412213741,0.46826171875,-0.182373046875,-0.89453125,103
792,808,Driver-3,15,2,13,-4.114503816793893,1.083969465648855,3.526717557251908,0.277587890625,-0.10009765625,-0.94970703125,71
793,471,Driver-2,14,32,52,-0.1755725190839695,13.56488549618321,0.0458015267175572,0.55712890625,-0.2626953125,-0.99609375,39
794,278,Driver-3,15,34,48,-4.625954198473282,8.412213740458014,32.0,0.310546875,0.39453125,-1.141357421875,20
795,567,Driver-3,14,20,41,-1.068702290076336,8.648854961832061,1.847328244274809,0.441650390625,-0.142822265625,-0.931396484375,50
796,336,Driver-3,15,28,2,-0.9083969465648856,4.160305343511451,0.7633587786259542,0.1806640625,-0.08447265625,-0.99560546875,25
797,1092,Driver-3,12,25,42,-0.648854961832061,5.091603053435114,0.6870229007633588,0.141357421875,0.038330078125,-1.015625,106
798,104,Driver-1,15,44,44,-4.641221374045801,3.267175572519084,-2.511450381679389,0.259033203125,-0.201171875,-0.9365234375,8
799,260,Driver-3,15,35,25,-2.49618320610687,0.5267175572519084,0.4961832061068702,0.288330078125,-0.156005859375,-1.06005859375,19
800,401,Driver-1,14,28,46,0.6106870229007634,3.038167938931298,1.511450381679389,0.549560546875,-0.17333984375,-1.087158203125,31
801,103,Driver-1,15,44,43,-4.274809160305344,-0.1221374045801527,-1.877862595419847,0.050537109375,-0.118408203125,-1.09619140625,8
802,869,Driver-3,14,57,17,-1.969465648854962,3.045801526717557,0.7938931297709924,0.284423828125,-0.1025390625,-1.0400390625,76
803,507,Driver-2,14,34,40,0.9770992366412212,9.030534351145038,0.2213740458015267,0.37890625,-0.233154296875,-1.014892578125,43
804,400,Driver-1,14,28,45,0.5343511450381679,4.66412213740458,-2.122137404580153,0.378662109375,-0.06396484375,-0.934326171875,31
805,527,Driver-2,14,24,53,-2.450381679389313,8.442748091603054,-0.5572519083969466,0.332275390625,-0.120849609375,-1.015625,45
806,361,Driver-1,14,26,28,-0.8396946564885496,3.725190839694656,0.7404580152671756,0.18115234375,-0.095458984375,-0.980224609375,27
807,270,Driver-3,15,34,44,4.320610687022901,5.946564885496183,0.732824427480916,0.245849609375,-0.06689453125,-0.939208984375,20
808,20,Driver-1,15,40,20,0.3053435114503817,3.770992366412214,1.007633587786259,0.228271484375,-0.26904296875,-1.095458984375,2
809,504,Driver-2,14,34,37,-0.7938931297709924,5.16793893129771,0.7404580152671756,0.197021484375,-0.095703125,-0.99560546875,43
810,698,Driver-2,15,22,22,-0.4122137404580153,4.519083969465649,0.8320610687022901,0.19189453125,-0.07666015625,-0.99853515625,62
811,247,Driver-2,15,36,6,-0.0229007633587786,7.442748091603053,22.32824427480916,0.276123046875,0.310791015625,-1.025634765625,18
812,634,Driver-1,15,16,17,1.068702290076336,-1.557251908396946,-36.08396946564886,-0.178466796875,-0.579345703125,-0.838623046875,56
813,152,Driver-2,15,47,33,4.587786259541985,4.122137404580153,4.900763358778626,0.140869140625,0.03857421875,-1.007568359375,11
814,670,Driver-1,15,19,50,7.480916030534351,-1.885496183206107,-39.12977099236641,-0.05908203125,-0.41650390625,-0.914794921875,59
815,209,Driver-2,15,50,42,0.1297709923664122,4.229007633587786,24.48091603053435,0.214111328125,0.077392578125,-1.078369140625,15
816,34,Driver-1,15,41,9,1.877862595419847,1.190839694656489,-5.213740458015267,0.23486328125,-0.215576171875,-0.9443359375,3
817,620,Driver-1,15,15,22,2.702290076335878,4.732824427480916,-0.4732824427480916,0.271484375,-0.13037109375,-0.85693359375,55
818,315,Driver-3,15,31,40,2.061068702290076,5.213740458015267,1.33587786259542,0.22021484375,-0.164794921875,-0.751220703125,23
819,859,Driver-3,14,58,36,-4.305343511450381,0.6641221374045801,1.038167938931298,0.1708984375,-0.017822265625,-1.03564453125,75
820,840,Driver-3,15,0,50,-2.068702290076336,5.809160305343512,-26.02290076335878,-0.036376953125,-0.2255859375,-0.94091796875,73
821,488,Driver-2,14,33,44,-1.748091603053435,4.053435114503817,2.694656488549618,0.50439453125,-0.091552734375,-0.83740234375,41
822,839,Driver-3,15,0,50,2.358778625954198,-5.152671755725191,-24.88549618320611,-0.130126953125,-0.309814453125,-0.958740234375,73
823,457,Driver-2,14,31,46,-4.961832061068702,2.770992366412214,2.488549618320611,0.0859375,-0.088623046875,-1.135498046875,37
824,259,Driver-3,15,35,25,-1.015267175572519,1.687022900763359,1.076335877862595,0.290771484375,-0.05224609375,-1.01513671875,19
825,57,Driver-1,15,42,33,-0.8244274809160306,4.251908396946565,0.9083969465648856,0.196044921875,-0.10205078125,-0.9921875,5
826,281,Driver-3,15,33,39,-1.229007633587786,5.885496183206107,0.3816793893129771,0.3681640625,-0.1728515625,-0.86376953125,21
827,551,Driver-3,14,23,33,-2.221374045801527,3.221374045801527,-1.809160305343511,-0.013916015625,0.125244140625,-1.136474609375,48
828,472,Driver-2,14,32,53,0.8396946564885496,6.66412213740458,-0.5954198473282443,0.353515625,-0.08642578125,-1.003173828125,39
829,212,Driver-2,15,51,13,-1.351145038167939,4.022900763358779,-1.305343511450382,0.212646484375,-0.150390625,-0.889404296875,16
830,408,Driver-1,14,29,12,-3.687022900763359,3.366412213740458,-1.870229007633588,0.4619140625,-0.17919921875,-0.924560546875,32
831,750,Driver-2,15,9,16,-1.442748091603054,8.442748091603054,3.717557251908397,0.252197265625,-0.0234375,-0.999267578125,66
832,573,Driver-3,14,20,43,2.473282442748092,3.702290076335878,1.32824427480916,0.448974609375,-0.129150390625,-0.8310546875,50
833,76,Driver-1,15,43,22,-12.6412213740458,7.374045801526718,3.603053435114504,0.16552734375,-0.04736328125,-0.99755859375,6
834,468,Driver-2,14,32,50,-0.2595419847328244,4.656488549618321,0.7175572519083969,0.15673828125,-0.086669921875,-1.005126953125,39
835,27,Driver-1,15,40,26,0.2290076335877863,4.954198473282442,15.06870229007634,0.371826171875,0.0634765625,-1.029296875,2
836,453,Driver-2,14,31,43,0.7175572519083969,2.404580152671756,-0.2824427480916031,0.274658203125,-0.086669921875,-1.07763671875,37
837,1015,Driver-3,12,20,0,-0.0610687022900763,4.503816793893129,0.8931297709923665,0.646728515625,-0.306884765625,-1.0,95
838,792,Driver-3,15,4,2,6.549618320610687,1.977099236641221,-38.69465648854962,0.01220703125,-0.609375,-1.01904296875,69
839,664,Driver-1,15,19,43,-0.5190839694656488,3.106870229007634,3.541984732824428,0.292724609375,-0.064208984375,-0.90478515625,59
840,643,Driver-1,15,17,26,-7.122137404580153,5.045801526717558,5.603053435114504,0.293212890625,-0.02001953125,-0.936767578125,57
841,629,Driver-1,15,16,12,-1.885496183206107,6.00763358778626,5.030534351145038,0.25048828125,-0.11669921875,-1.039794921875,56
842,186,Driver-2,15,49,47,0.6641221374045801,3.061068702290076,1.648854961832061,0.32568359375,-0.173095703125,-1.025146484375,14
843,534,Driver-3,14,24,3,-11.48091603053435,-1.145038167938931,0.2824427480916031,0.494384765625,-0.15869140625,-0.456787109375,46
844,430,Driver-1,14,30,26,-4.030534351145038,9.396946564885496,4.206106870229007,0.103759765625,-0.050537109375,-1.18408203125,34
845,362,Driver-1,14,26,29,-0.1297709923664122,4.083969465648855,0.8778625954198473,0.306396484375,-0.16064453125,-0.94677734375,27
846,277,Driver-3,15,34,47,-6.366412213740458,10.05343511450382,37.37404580152672,0.529296875,0.327392578125,-0.7548828125,20
847,661,Driver-1,15,18,17,4.145038167938932,0.7633587786259542,2.488549618320611,0.1171875,-0.07373046875,-1.03271484375,58
848,173,Driver-2,15,48,50,1.442748091603054,6.702290076335878,-2.114503816793893,0.27685546875,-0.2236328125,-1.145751953125,13
849,317,Driver-3,15,31,41,-1.908396946564886,9.938931297709924,2.160305343511451,0.54443359375,-0.072265625,-0.84912109375,23
850,641,Driver-1,15,17,23,0.6030534351145038,3.396946564885496,5.076335877862595,0.448486328125,-0.130615234375,-0.97900390625,57
851,685,Driver-1,15,20,33,7.541984732824427,-1.824427480916031,-24.16793893129771,0.002685546875,-0.420166015625,-1.1611328125,60
852,137,Driver-2,15,46,47,-9.893129770992369,6.549618320610687,8.778625954198473,0.298828125,0.13525390625,-1.181396484375,10
853,134,Driver-2,15,46,44,-5.152671755725191,7.801526717557252,31.26717557251908,0.23681640625,0.490966796875,-1.15966796875,10
854,967,Driver-2,12,17,35,-0.9389312977099236,5.32824427480916,0.8625954198473282,0.03173828125,0.05859375,-0.974365234375,89
855,819,Driver-3,15,1,21,-0.3969465648854962,6.427480916030534,2.458015267175572,0.39013671875,-0.133544921875,-1.023193359375,72
856,999,Driver-2,12,19,31,2.809160305343511,7.641221374045801,1.122137404580153,0.706787109375,-0.3740234375,-0.999755859375,93
857,427,Driver-1,14,30,24,-1.381679389312977,7.595419847328245,5.213740458015267,0.5419921875,-0.12353515625,-1.0546875,34
858,83,Driver-1,15,43,28,-4.603053435114504,4.618320610687022,12.13740458015267,0.176025390625,-0.0048828125,-1.091552734375,6
859,841,Driver-3,15,0,51,3.099236641221374,-2.183206106870229,-24.79389312977099,0.08203125,-0.382568359375,-0.97705078125,73
860,1072,Driver-3,12,24,13,-1.213740458015267,5.633587786259542,-0.5877862595419847,-0.018798828125,0.1376953125,-0.996826171875,104
861,821,Driver-3,15,1,23,-2.007633587786259,5.122137404580153,1.885496183206107,0.275146484375,-0.1240234375,-0.95751953125,72
862,386,Driver-1,14,28,2,-0.4045801526717557,4.068702290076335,0.9770992366412212,0.15869140625,-0.087890625,-1.02099609375,30
863,322,Driver-3,15,31,7,-0.9083969465648856,4.022900763358779,0.9618320610687024,0.17529296875,-0.05126953125,-0.98681640625,24
864,126,Driver-2,15,46,36,-0.7480916030534351,4.122137404580153,0.3435114503816794,0.277587890625,-0.105712890625,-0.931396484375,10
865,825,Driver-3,15,1,26,-1.763358778625954,2.748091603053435,1.610687022900763,0.21484375,-0.126220703125,-1.233154296875,72
866,712,Driver-2,15,13,8,-5.496183206106871,0.0305343511450381,4.137404580152672,0.358154296875,-0.09716796875,-0.905029296875,63
867,417,Driver-1,14,29,51,-3.099236641221374,7.908396946564886,-0.900763358778626,0.41259765625,-0.145263671875,-0.826416015625,33
868,241,Driver-2,15,36,3,1.229007633587786,0.1297709923664122,1.251908396946565,0.244140625,-0.157470703125,-1.067626953125,18
869,192,Driver-2,15,49,53,-7.374045801526718,6.114503816793893,13.76335877862596,0.249267578125,0.123046875,-0.959228515625,14
870,943,Driver-1,12,16,22,0.1908396946564886,8.465648854961833,1.488549618320611,0.413818359375,-0.118408203125,-0.939453125,85
871,273,Driver-3,15,34,45,-5.374045801526718,2.916030534351145,1.641221374045801,0.373046875,-0.21728515625,-1.05322265625,20
872,683,Driver-1,15,20,30,-3.374045801526718,0.732824427480916,-2.015267175572519,0.19677734375,-0.16162109375,-1.031494140625,60
873,992,Driver-2,12,18,54,-0.8473282442748091,0.6717557251908397,1.274809160305344,0.578125,-0.260009765625,-0.98291015625,92
874,631,Driver-1,15,16,14,-1.274809160305344,10.24427480916031,3.458015267175572,0.291748046875,-0.133544921875,-0.937255859375,56
875,946,Driver-2,12,16,49,-3.0,4.427480916030534,0.7099236641221374,-0.025634765625,0.078369140625,-0.930419921875,86
876,25,Driver-1,15,40,24,-10.00763358778626,9.412213740458014,41.01526717557252,0.18115234375,0.498046875,-1.0078125,2
877,368,Driver-1,14,27,0,-0.6106870229007634,4.450381679389313,0.816793893129771,0.157958984375,-0.0654296875,-1.016357421875,28
878,237,Driver-2,15,38,17,-6.801526717557252,11.80916030534351,15.0381679389313,0.188232421875,0.25341796875,-1.263916015625,17
879,1094,Driver-3,12,26,0,-1.83206106870229,2.816793893129771,2.267175572519084,0.063720703125,0.046142578125,-1.11376953125,107
880,86,Driver-1,15,44,3,0.4427480916030535,3.122137404580153,-0.3816793893129771,0.331787109375,-0.16162109375,-1.033447265625,7
881,1045,Driver-3,12,21,38,4.641221374045801,8.770992366412214,2.320610687022901,0.509521484375,-0.154296875,-0.933349609375,100
882,1037,Driver-3,12,21,17,0.5801526717557252,4.847328244274809,0.7480916030534351,0.031982421875,0.000732421875,-1.02783203125,99
883,145,Driver-2,15,47,26,0.8091603053435115,-1.778625954198473,0.9236641221374046,0.122314453125,-0.12646484375,-0.907470703125,11
884,420,Driver-1,14,29,53,-5.488549618320611,1.053435114503817,0.8549618320610687,0.381591796875,-0.2509765625,-0.8740234375,33
885,843,Driver-3,15,0,3,-1.16793893129771,4.419847328244275,0.9541984732824428,0.367919921875,-0.122802734375,-0.93505859375,74
886,548,Driver-3,14,23,31,-5.0,12.22137404580153,-0.931297709923664,0.503662109375,-0.06201171875,-0.965576171875,48
887,608,Driver-1,15,14,11,0.1603053435114504,7.770992366412214,-3.839694656488549,0.21240234375,-0.18212890625,-1.090087890625,54
888,530,Driver-3,14,24,1,7.343511450381679,2.244274809160305,1.885496183206107,0.482666015625,-0.16455078125,-1.033935546875,46
889,872,Driver-3,14,57,18,5.022900763358779,-4.137404580152672,-8.717557251908397,0.0693359375,-0.25341796875,-0.93896484375,76
890,1000,Driver-2,12,19,32,2.068702290076336,4.824427480916031,2.076335877862595,0.63671875,-0.30615234375,-1.0546875,93
891,624,Driver-1,15,15,26,-0.3511450381679389,3.534351145038168,-2.419847328244275,0.169189453125,-0.154541015625,-0.909912109375,55
892,269,Driver-3,15,34,43,-1.412213740458015,5.748091603053435,-0.6870229007633588,0.141357421875,-0.154296875,-1.110107421875,20
893,622,Driver-1,15,15,24,-1.129770992366412,-0.6870229007633588,-41.34351145038168,-0.109375,-0.564697265625,-0.81689453125,55
894,314,Driver-3,15,31,40,-7.618320610687022,-0.6030534351145038,-0.2137404580152672,0.087646484375,-0.03125,-0.9990234375,23
895,802,Driver-3,15,3,15,-1.190839694656489,3.282442748091603,-15.91603053435115,0.17529296875,-0.4609375,-0.928466796875,70
896,1098,Driver-3,12,26,4,-0.6412213740458015,4.511450381679389,0.9465648854961832,0.308349609375,-0.08984375,-0.989501953125,107
897,939,Driver-1,12,16,21,-1.709923664122137,5.809160305343512,0.366412213740458,0.013671875,0.13134765625,-1.03466796875,85
898,719,Driver-2,15,13,15,-1.580152671755725,0.0534351145038167,-24.51908396946565,0.088134765625,-0.40576171875,-1.033203125,63
899,1111,Driver-3,12,26,29,-1.061068702290076,4.534351145038168,1.183206106870229,0.419189453125,-0.19287109375,-1.002685546875,109
900,1031,Driver-3,12,20,42,-5.847328244274809,2.526717557251908,11.62595419847328,0.63427734375,-0.34521484375,-0.978515625,98
901,434,Driver-1,14,30,50,-2.618320610687023,6.404580152671755,0.5114503816793893,0.590087890625,-0.2265625,-0.860595703125,35
902,523,Driver-2,14,24,51,-0.6183206106870229,5.427480916030534,1.389312977099237,0.314697265625,-0.10205078125,-0.92529296875,45
903,165,Driver-2,15,48,20,-6.763358778625954,0.8854961832061069,10.22137404580153,-0.009521484375,0.197509765625,-0.861083984375,12
904,280,Driver-3,15,33,38,-1.251908396946565,1.290076335877863,0.648854961832061,0.265625,-0.107666015625,-0.9228515625,21
905,74,Driver-1,15,43,20,0.7480916030534351,5.824427480916031,2.038167938931298,0.34130859375,-0.0771484375,-0.9580078125,6
906,538,Driver-3,14,24,4,2.595419847328244,7.33587786259542,1.435114503816794,0.031005859375,0.017822265625,-1.03369140625,46
907,67,Driver-1,15,42,41,-2.236641221374046,7.106870229007634,39.41984732824427,0.23388671875,0.59326171875,-0.92578125,5
908,454,Driver-2,14,31,44,-1.870229007633588,7.290076335877862,1.709923664122137,0.45703125,-0.210205078125,-1.078857421875,37
909,616,Driver-1,15,15,18,-3.931297709923664,2.824427480916031,5.755725190839694,0.385498046875,-0.165771484375,-0.98779296875,55
910,820,Driver-3,15,1,22,0.7404580152671756,3.916030534351145,2.839694656488549,0.473388671875,-0.200927734375,-1.1171875,72
911,603,Driver-1,15,14,6,-0.4961832061068702,2.725190839694656,5.458015267175573,0.31640625,-0.1328125,-0.931396484375,54
912,718,Driver-2,15,13,14,3.717557251908397,-2.16793893129771,-40.89312977099237,-0.09765625,-0.533447265625,-0.96044921875,63
913,1060,Driver-3,12,22,48,0.7022900763358778,5.083969465648855,0.6412213740458015,0.444580078125,-0.154052734375,-1.03466796875,102
914,7,Driver-1,15,39,44,-4.389312977099237,1.305343511450382,-1.129770992366412,0.26806640625,-0.111572265625,-0.996826171875,1
915,65,Driver-1,15,42,40,0.732824427480916,2.50381679389313,-0.6641221374045801,0.29052734375,-0.09619140625,-0.91015625,5
916,144,Driver-2,15,47,25,5.648854961832061,1.419847328244275,1.847328244274809,0.31787109375,-0.063232421875,-0.898681640625,11
917,758,Driver-2,15,7,9,0.2900763358778626,5.045801526717558,1.969465648854962,0.3564453125,-0.107666015625,-1.001220703125,67
918,959,Driver-2,12,17,6,-3.557251908396946,5.259541984732825,0.9618320610687024,0.569580078125,-0.325927734375,-0.981201171875,87
919,221,Driver-2,15,51,23,-1.045801526717557,5.106870229007634,6.320610687022901,0.200927734375,-0.040283203125,-1.03369140625,16
920,830,Driver-3,15,0,44,-0.9694656488549618,5.801526717557252,0.6870229007633588,0.331298828125,-0.112060546875,-1.0126953125,73
921,445,Driver-2,14,31,17,-3.259541984732825,5.687022900763359,3.641221374045802,0.282958984375,-0.126220703125,-1.045654296875,36
922,44,Driver-1,15,41,53,-0.5725190839694656,4.503816793893129,1.67175572519084,0.34033203125,-0.139404296875,-0.94873046875,4
923,601,Driver-3,14,21,6,1.793893129770992,0.1984732824427481,0.9541984732824428,0.5546875,-0.227294921875,-0.8876953125,53
924,905,Driver-1,12,14,22,0.7099236641221374,4.175572519083969,1.297709923664122,0.09765625,-0.063720703125,-1.003662109375,80
925,902,Driver-1,12,14,6,-1.015267175572519,4.282442748091603,-1.938931297709924,0.03369140625,0.0283203125,-0.9775390625,79
926,444,Driver-2,14,31,17,2.961832061068702,7.580152671755725,0.183206106870229,0.48828125,-0.101318359375,-0.953369140625,36
927,81,Driver-1,15,43,26,1.145038167938931,4.541984732824427,38.11450381679389,0.275390625,0.47705078125,-0.95458984375,6
928,236,Driver-2,15,38,16,-0.8549618320610687,-1.061068702290076,11.09160305343512,0.124755859375,0.094482421875,-0.905029296875,17
929,474,Driver-2,14,32,55,-6.709923664122138,10.19083969465649,2.725190839694656,0.221923828125,-0.032470703125,-0.879638671875,39
930,1091,Driver-3,12,25,41,-0.9389312977099236,4.282442748091603,0.7480916030534351,0.331298828125,-0.0888671875,-0.9765625,106
931,655,Driver-1,15,18,10,0.7022900763358778,9.80916030534351,2.061068702290076,0.3330078125,-0.12744140625,-0.998291015625,58
932,895,Driver-1,12,13,19,-3.183206106870229,2.0,1.183206106870229,-0.009765625,-0.021728515625,-0.99853515625,78
933,1053,Driver-3,12,22,31,1.916030534351145,9.442748091603054,2.786259541984733,0.382568359375,-0.226806640625,-0.99462890625,101
934,633,Driver-1,15,16,16,5.572519083969466,1.946564885496183,-4.480916030534351,0.216064453125,-0.1708984375,-0.978759765625,56
935,466,Driver-2,14,32,13,-3.16793893129771,0.0687022900763358,1.961832061068702,0.086181640625,0.056884765625,-1.03662109375,38
936,28,Driver-1,15,41,4,-0.2748091603053435,5.763358778625954,0.4885496183206107,0.20361328125,-0.121826171875,-1.002685546875,3
937,679,Driver-1,15,20,26,-3.267175572519084,9.557251908396946,0.9847328244274808,0.311279296875,-0.1376953125,-0.956298828125,60
